Ax,Ay,Az,Gx,Gy,Gz
0.6122091568676509,0.4879879879879879,0.6966966966966966,0.4990390149467185,0.4991611001621989,0.0
0.4963722792094072,0.5010010010010009,0.7585085085085085,0.5011598095470639,0.4948881176203847,0.4998325688473412
1.0000000000000002,0.4149149149149148,0.4411911911911911,0.4549819488288539,1.0,0.4166314944974449
1.0000000000000002,0.0,0.5973473473473473,0.5552278633343216,0.0,0.0
1.0000000000000002,0.2527527527527526,1.0,0.142473446465633,0.0,2.9649266616693648e-05
0.4961220915686766,0.5010010010010009,0.7582582582582582,0.5011598095470639,0.4949038142909465,0.4998011755062176
0.4055541656242183,0.4627127127127126,0.7537537537537538,0.4987948445157577,0.4956973681915691,0.6229851579259466
0.9146860145108834,0.0533033033033032,0.8103103103103102,1.0,1.0,0.8071507054781379
0.6574931198398801,0.1218718718718718,0.7422422422422421,1.0,1.0,0.8441425257687007
0.7187890918188643,0.5583083083083082,0.6148648648648648,0.347271395434013,0.9840382301131904,0.3348954427333136
0.4753565173880412,0.2492492492492492,0.6964464464464464,1.0,0.5364877827580794,0.5962188464691212
0.5996997748311235,0.6166166166166165,0.5455455455455456,0.5017091930167257,0.5036625564644122,1.0
0.3822867150362773,0.4434434434434433,0.7680180180180181,0.5015714111306835,0.4948270750126445,0.5997593177180529
0.443332499374531,0.5157657657657657,0.7565065065065064,0.5008232031672393,0.4950398521024818,0.5013115440291609
0.5288966725043784,0.4179179179179178,0.6811811811811811,0.408207614629297,1.0,0.064002302178349
0.7277958468851641,0.0365365365365364,0.8866366366366365,0.9328827807523936,1.0,0.6881036677886879
0.4963722792094072,0.5015015015015014,0.7585085085085085,0.501220852154804,0.4949334635575632,0.4998622181139578
1.0000000000000002,0.0,0.2545045045045045,0.1905907180354745,0.0,0.0
0.4961220915686766,0.5010010010010009,0.7582582582582582,0.5011912028881874,0.494872420949823,0.4998168721767794
0.4403302476857644,0.4391891891891891,0.2407407407407407,0.0,0.6105185133508904,0.3944869804838062
0.7112834625969479,0.0795795795795795,0.8468468468468469,1.0,1.0,0.7340687514170605
1.0000000000000002,0.1466466466466466,0.7137137137137137,0.9985053281476184,0.0,0.0
0.790342757067801,0.5407907907907907,0.6116116116116116,0.6713309032561872,0.0,0.5775694577672358
0.4961220915686766,0.5010010010010009,0.7585085085085085,0.5012051554842423,0.4949177668870014,0.4997401328984774
0.3800350262697024,0.4549549549549548,0.4552052052052052,1.0,0.5940823551982141,0.5006714686851422
0.5301476107080312,0.908158158158158,0.7955455455455455,0.0,0.4795664230775939,0.6002005685682892
0.4590943207405555,0.3513513513513513,0.6574074074074073,0.956065019097616,0.0,0.6476463714529885
0.7990993244933702,0.081081081081081,0.916166166166166,0.9456424298446028,1.0,0.9193313218340688
0.4325744308231175,0.4632132132132131,0.6799299299299298,0.3396724628076111,1.0,0.3702077192737674
1.0000000000000002,0.2214714714714714,0.6666666666666666,0.2459720599264001,1.0,0.87757817813977
0.4788591443582688,0.6974474474474474,0.6308808808808808,1.0,0.4895617140764253,0.4566597485044561
0.730047535651739,0.5082582582582582,0.6263763763763763,0.6959310741754887,0.0,0.6172314561278058
0.4958719039279461,0.5010010010010009,0.7582582582582582,0.5011598095470639,0.4948113783420828,0.4998168721767794
0.4961220915686766,0.5007507507507507,0.7582582582582582,0.5011144636098854,0.4948881176203847,0.4998168721767794
0.6710032524393297,0.0342842842842842,1.0,1.0,0.9964595287510682,0.7152065856253379
0.5646735051288467,0.5808308308308308,0.7540040040040039,0.5015557144601217,0.494795681671521,0.5786385754399428
0.5726795096322244,0.5765765765765765,0.6624124124124124,0.506119957444582,0.4905383958002686,0.1013010795821197
1.0000000000000002,0.0,1.0,0.1238101051676928,0.3037637127858102,0.0
0.3370027520640481,0.6358858858858858,0.8158158158158157,0.4617419816174547,0.9317997104836316,0.3918028498177442
0.4961220915686766,0.5012512512512511,0.7585085085085085,0.5012818947625443,0.4949177668870014,0.4997854788356559
0.4365774330748062,0.2780280280280279,0.7094594594594594,0.842204858991576,0.415243211189982,0.4709594153862253
0.4218163622717039,0.4752252252252251,0.7147147147147146,0.4308840713675288,1.0,0.4917906412961961
0.5071303477608208,0.4451951951951951,0.7502502502502502,0.2616129201039469,1.0,0.270021103301533
0.6534901175881913,0.3873873873873873,0.6098598598598598,0.454751730993948,1.0,0.1878891466243438
1.0000000000000002,0.3093093093093092,0.8526026026026026,0.9990233182761568,0.0,0.0
1.0000000000000002,0.0,0.2747747747747747,0.0152606519350506,0.0,0.0
1.0000000000000002,0.1188688688688688,1.0,0.6412979402480075,0.0,0.352093761445489
0.7137853390042533,0.5015015015015014,0.6166166166166166,0.3384969565899855,1.0,0.2596142107190819
0.5143857893420066,0.8048048048048047,0.7109609609609608,0.0,0.4434902419031341,0.5505886251460662
0.9717287965974484,0.0,0.7094594594594594,0.4503566632366534,0.0,0.2852521059699671
0.4963722792094072,0.5010010010010009,0.7587587587587588,0.5014039799780247,0.4947799850009592,0.4998011755062176
0.6007005253940457,0.2447447447447447,0.5385385385385385,0.9603223049688684,0.417088442018243,0.7126114027591258
0.6357267950963224,0.5082582582582582,0.6398898898898899,0.5003662556464412,0.4936829621361424,0.0523902541116556
1.0000000000000002,0.0665665665665665,0.6846846846846846,0.6753597153670405,1.0,0.5992866735266931
0.4380785589191895,0.527027027027027,0.5858358358358358,0.5121021330031219,0.494872420949823,0.0
0.4948711533650239,0.4004004004004003,0.5643143143143143,0.5170622809006401,0.4943544308212846,0.0
0.3882912184138105,0.4011511511511511,0.6566566566566566,0.3523693252175733,1.0,0.4825714634529187
0.5534150612959721,0.5360360360360359,0.6211211211211211,0.500915639116103,0.4925528018556953,0.141175855032527
0.4963722792094072,0.5015015015015014,0.7582582582582582,0.5010063309904599,0.4949334635575632,0.4998325688473412
0.7430572929697274,0.0082582582582582,0.6676676676676676,1.0,1.0,1.0
0.7077808356267202,0.5660660660660659,0.519019019019019,0.3204283446988855,1.0,0.4350506653644244
0.4158118588941707,0.7267267267267266,0.6043543543543544,0.0,0.7009208713396236,0.3862933184505642
0.4961220915686766,0.5012512512512511,0.7582582582582582,0.5012051554842423,0.4948567242792612,0.4997854788356559
0.4961220915686766,0.5012512512512511,0.7582582582582582,0.5011912028881874,0.4948881176203847,0.4997854788356559
0.7297973480110085,0.5255255255255254,0.5840840840840841,0.8399759317718052,0.0,0.4880809948200987
0.4961220915686766,0.5010010010010009,0.7585085085085085,0.5011441128765021,0.4949038142909465,0.4997854788356559
0.4961220915686766,0.5010010010010009,0.7582582582582582,0.5011284162059403,0.494872420949823,0.4998936114550814
0.4963722792094072,0.5012512512512511,0.7582582582582582,0.5011912028881874,0.4949177668870014,0.4998011755062176
0.5721791343507632,0.547047047047047,0.7479979979979979,0.5018312782322061,0.495100894710222,0.586741545598828
0.4963722792094072,0.5012512512512511,0.7580080080080079,0.501374330711408,0.4948270750126445,0.4998482655179029
0.5876907680760571,0.7677677677677677,0.5565565565565566,1.0,0.3637075535866892,0.5337112161431536
1.0000000000000002,1.0,0.0,0.8796396742068822,0.9869665312102132,0.8309887158379405
0.4961220915686766,0.5012512512512511,0.7585085085085085,0.5011441128765021,0.4948270750126445,0.4998622181139578
0.4593445083812861,0.5457957957957957,0.5422922922922923,0.4982297643755341,0.4974815564120899,0.0
0.4851138353765325,0.4522022022022021,0.6268768768768769,1.0,0.7174791147077804,0.578928091808082
0.4283212409306981,0.4942442442442442,0.5998498498498498,0.5020597519926051,0.4872577916528594,0.0
0.5686765073805355,0.5725725725725724,0.6426426426426426,0.4995273558086401,0.4955142403683485,0.9992831853776794
0.6607455591693772,0.4557057057057056,0.6218718718718719,0.6908802344036137,0.0,0.4113207876240473
0.6955216412309233,0.5152652652652652,0.5077577577577578,0.4248722465423723,1.0,0.4039032387463592
0.9071803852889668,0.1106106106106106,1.0,0.0131555540052671,0.0142682735406456,0.0
0.8448836627470604,0.0,1.0,0.0157036468597939,0.6136770322828191,0.0
0.3660245183887917,0.537037037037037,0.7685185185185185,0.5010830702687619,0.4957427141287476,0.3590369220573103
0.474355766825119,0.7842842842842841,0.7582582582582582,0.1997767584631215,0.3924272284912011,0.5659260163594189
0.5096322241681263,0.8581081081081079,0.6751751751751751,0.0,0.6023841498508816,0.4317543645464534
0.4961220915686766,0.5010010010010009,0.7585085085085085,0.501220852154804,0.4948881176203847,0.4998325688473412
0.4963722792094072,0.5010010010010009,0.7585085085085085,0.5011912028881874,0.4949334635575632,0.4998325688473412
0.5021265949462098,0.8951451451451451,0.7377377377377377,0.0,0.4328845248269006,0.4786647365575457
0.427820865649237,0.5495495495495495,0.6934434434434434,0.4567504403788129,0.4903099220398695,0.9971153007656488
0.593945459094321,0.4524524524524523,0.6206206206206206,0.5033573434257111,0.4964595287510682,0.0143293161483858
0.3380035026269703,0.5575575575575574,0.6809309309309308,0.4937126114027591,0.4932242705408375,0.9658004429949248
0.5494120590442834,0.5397897897897896,0.6861861861861861,0.5015557144601217,0.4956659748504456,0.3904599124474597
0.4788591443582688,0.7059559559559558,0.7109609609609608,1.0,0.4797338542302527,0.6043218166280063
0.5033775331498626,0.807057057057057,0.5152652652652653,1.0,0.6364912709070931,0.3575875961421072
0.7573179884913688,0.3055555555555554,0.2262262262262262,0.0,0.0,0.0
0.5676757568176134,0.5513013013013012,0.6263763763763763,0.502532396183965,0.4942009522646807,0.9403770689083836
0.4961220915686766,0.5010010010010009,0.7582582582582582,0.5012051554842423,0.4948567242792612,0.4997854788356559
0.7475606705028773,0.5217717717717717,0.5848348348348348,0.3520327188377488,1.0,0.3563963932539198
0.5836877658243684,0.4116616616616615,0.6063563563563563,0.9598950067146867,0.0,0.5337251687392085
0.999499624718539,0.1011011011011011,1.0,0.0,0.0,0.0
0.4968726544908682,0.6103603603603602,0.6233733733733733,0.4988558871234979,0.4966426565742888,1.0
1.0000000000000002,0.0578078078078077,0.5873373373373373,0.9404677607827404,0.0,0.0
0.4961220915686766,0.5010010010010009,0.7582582582582582,0.5011912028881874,0.4949491602281249,0.4997854788356559
1.0000000000000002,0.3733733733733733,0.766016016016016,0.2349983431292185,1.0,0.6996389765770794
0.394045534150613,0.5167667667667667,0.7364864864864864,0.5014807192563266,0.4955752829760887,0.348643982070914
0.5604203152364274,0.5673173173173173,0.7184684684684685,0.5010987669393236,0.4945829045816837,0.3561382702269041
0.4961220915686766,0.5010010010010009,0.7582582582582582,0.5012051554842423,0.4948881176203847,0.4998482655179029
0.4268201150863148,0.5030030030030029,0.6759259259259258,0.5029300451715297,0.4942009522646807,0.2256745208155292
0.5246434826119591,0.7067067067067065,0.6428928928928929,1.0,0.4532570591415665,0.4966583532448506
0.5886915186389794,0.605105105105105,0.6156156156156156,0.4979698972740115,0.4929347541726983,1.0
0.3755316487365525,0.4822322322322321,0.7307307307307307,0.5020597519926051,0.4914086889791932,0.8559551424036835
0.5729296972729548,0.5035035035035034,0.6551551551551551,0.7979036224427507,0.0,0.479398991924935
0.4963722792094072,0.5010010010010009,0.7582582582582582,0.5011441128765021,0.4949038142909465,0.4997854788356559
0.3745308981736303,0.5523023023023022,0.6751751751751751,0.5000610426077402,0.495864799344228,0.95980431484033
0.4961220915686766,0.5015015015015014,0.7585085085085085,0.5011144636098854,0.4949491602281249,0.4998168721767794
1.0000000000000002,0.0060060060060059,0.0700700700700701,0.5993163227933097,1.0,0.0
0.4208156117087817,0.5055055055055054,0.5888388388388388,0.5007482079634442,0.4977867694507909,0.0
0.1983987990993246,0.5305305305305305,0.7687687687687688,0.4009435443082129,0.5103615466452727,0.3827214538605089
0.6124593445083815,0.0217717717717717,0.9031531531531533,0.859129358006174,1.0,0.3659190400613914
0.6212159119339506,0.4847347347347346,0.6356356356356356,0.500687165355704,0.4972827319183076,0.0595322392172594
0.4455841881411059,0.5555555555555555,0.5630630630630631,0.504517152972775,0.4993442279854195,0.0
0.140605454090568,0.5065065065065064,0.841091091091091,0.3869333937945829,0.8253570992552801,0.5967525332682212
0.8413810357768328,0.0495495495495495,0.8125625625625625,1.0,1.0,1.0
0.4963722792094072,0.5010010010010009,0.7580080080080079,0.5012051554842423,0.4948881176203847,0.4998011755062176
0.4400800600450339,0.5910910910910909,0.5968468468468469,0.5068210753963409,0.5077838045241293,0.9986570626297157
0.5891918939204405,0.4609609609609609,0.6431431431431431,0.4975582956903919,0.4948567242792612,0.002213230549209
0.498123592694521,0.383133133133133,0.6443943943943944,0.3850253762840748,1.0,0.2581491881333171
0.4958719039279461,0.5015015015015014,0.7585085085085085,0.5012818947625443,0.4949631128241799,0.4998325688473412
0.9319489617212912,0.4642142142142141,1.0,0.3473620873083698,0.0,0.0
0.2829622216662498,0.3793793793793793,0.6076076076076076,0.2538465563248862,1.0,0.5265081884298097
0.5504128096072055,0.5708208208208208,0.6141141141141141,0.4990390149467185,0.5003348623053177,1.0
0.4961220915686766,0.5012512512512511,0.7585085085085085,0.5011284162059403,0.4949334635575632,0.4998168721767794
0.5148861646234677,0.4336836836836836,0.6759259259259258,0.6049322427054084,1.0,0.4223851962955857
0.38353765323993,0.5598098098098097,0.6844344344344344,0.5006557720145804,0.4969321729424281,0.1183912656748696
1.0000000000000002,0.2004504504504504,0.6316316316316316,0.983839405619408,0.0,0.0400596473481347
0.4961220915686766,0.5010010010010009,0.7585085085085085,0.5012818947625443,0.4948567242792612,0.4997854788356559
0.4961220915686766,0.5010010010010009,0.7585085085085085,0.501220852154804,0.4948567242792612,0.4998011755062176
0.4500875656742558,0.6601601601601601,0.7737737737737738,1.0,0.5626907581491881,0.6990145979036224
0.4133099824868653,0.3778778778778778,0.6509009009009008,0.7792245844742487,0.0,0.4717826185534646
0.9339504628471356,0.0,0.0873373373373374,0.0,0.0,0.0
0.5228921691268452,0.5665665665665665,0.7645145145145145,0.5004429949247432,0.4955438896349652,0.4274517327380225
0.5611708781586191,0.5232732732732732,0.5935935935935935,0.4995727017458186,0.4941556063275023,0.1369482184278912
0.4515886915186391,0.4454454454454453,0.7084584584584583,0.3361162948881177,1.0,0.292455133683311
0.6494871153365025,0.289039039039039,0.0470470470470471,0.245680799483754,0.0,0.0
0.8253690267700777,0.5765765765765765,0.5940940940940941,0.4866927115126358,0.3590526187278721,0.6253047770200744
0.4638478859144359,0.2132132132132131,0.7464964964964964,0.5863142473446465,0.5642778659504334,0.4811064408671538
0.4243182386790093,0.2930430430430429,0.5625625625625625,0.610853375656208,0.4991000575544587,0.4922929347541727
0.5669251938954217,0.2099599599599599,0.7787787787787788,0.813347402201022,0.4541116556499294,0.4613443326298899
0.8508881661245936,0.2352352352352352,1.0,0.0,0.0,0.0
0.4961220915686766,0.5012512512512511,0.7582582582582582,0.5011755062176256,0.4948881176203847,0.4997854788356559
0.3972979734801102,0.5397897897897896,0.6614114114114114,0.5245391283115615,1.0,0.5051572283167937
1.0000000000000002,0.0,0.3911411411411411,0.3741144461691403,0.0,0.0
0.3827870903177384,0.5122622622622621,0.5793293293293293,0.4969932155501683,0.4987024085668939,0.0057223084570173
0.3272454340755568,0.3708708708708708,0.6626626626626626,0.434928580148944,0.0,0.4120532989169297
0.6932699524643484,0.0,0.8893893893893893,0.9354779636186056,1.0,0.6364459249699147
0.5511633725293972,0.5435435435435434,0.6026026026026026,0.5027015714111307,0.4976803809058723,0.0327955770270506
0.6067050287715788,0.0,1.0,1.0,1.0,0.9459319462127422
0.5271453590192646,0.4917417417417417,0.7402402402402402,0.5701833022306713,0.3686520048136456,0.516771020457994
0.5499124343257444,0.5578078078078077,0.6759259259259258,0.5012661980919825,0.4948427716832063,0.3326822121841045
0.5228921691268452,0.7022022022022021,0.6701701701701701,0.1681113417165181,0.473202295202051,0.5429896925196644
1.0000000000000002,0.3018018018018017,0.5723223223223223,0.6063519193539948,1.0,0.7257809093604478
0.5846885163872906,0.2067067067067066,0.3063063063063063,0.0,0.5406997226921534,0.4189354169210109
0.5276457343007257,0.3978978978978978,0.6386386386386387,0.4908732581055863,1.0,0.3425257687008389
0.7120340255191395,0.0415415415415415,0.8688688688688688,1.0,1.0,1.0
0.4015511633725295,0.4522022022022021,0.6386386386386387,0.3103563144217521,1.0,0.4980919824894919
0.4961220915686766,0.5012512512512511,0.7582582582582582,0.5008842457749795,0.4950555487730436,0.4997715262396009
0.4961220915686766,0.5012512512512511,0.7587587587587588,0.5011755062176256,0.4949631128241799,0.4998622181139578
0.4963722792094072,0.5010010010010009,0.7582582582582582,0.5011598095470639,0.4948427716832063,0.4998168721767794
0.5193895421566176,0.7387387387387386,0.4769769769769769,1.0,0.4995727017458186,0.4882030800355791
0.9642231673755318,0.125125125125125,1.0,0.0049148019603397,0.0,0.0
0.49311983987991,0.7252252252252251,0.6719219219219219,1.0,0.4791234281528507,0.6295777595618886
0.8611458593945461,0.0908408408408408,0.9431931931931932,0.8707884960845527,1.0,0.778293248687584
0.7045283962972231,0.4839839839839839,0.6326326326326326,0.8771665765561505,0.0,0.4697525158274761
0.5188891668751565,0.2122122122122121,0.7404904904904904,1.0,0.378724035090779,0.5733278685665452
0.8256192144108083,0.2612612612612612,1.0,0.0,2.9649266616693648e-05,1.5696670561837767e-05
0.8321240930698025,0.6323823823823823,0.5427927927927928,0.4242007778572301,0.673406351919354,0.5917173901669079
0.5041280960720542,0.1816816816816816,0.6223723723723723,0.7258576486387498,0.5059978722291016,0.3613268918848213
0.4310733049787342,0.6213713713713712,0.7397397397397396,0.4931021853253571,0.4943997767584631,1.0
0.4113084813610209,0.752002002002002,0.6559059059059058,1.0,0.4790780822156723,0.6057868392137712
0.4676007005253941,0.4659659659659659,0.6481481481481481,0.4977710727802292,0.4957427141287476,1.0
0.3917938453840381,0.6176176176176175,0.6381381381381381,0.4961229223712437,0.5014650225857649,0.9981233758306154
0.4403302476857644,0.4929929929929929,0.5568068068068068,0.4984739348064949,0.5071419851056037,0.0012661980919825
0.4961220915686766,0.5012512512512511,0.7587587587587588,0.5012365488253658,0.4948427716832063,0.4997558295690392
0.4961220915686766,0.5012512512512511,0.7582582582582582,0.5010830702687619,0.4948567242792612,0.4997715262396009
0.999499624718539,0.7184684684684683,0.0,0.5770061217015191,1.0,0.2435443082128468
0.997247935951964,0.079079079079079,0.5503003003003003,0.0336955194725918,0.0,0.0
0.4963722792094072,0.5012512512512511,0.7585085085085085,0.501220852154804,0.4949177668870014,0.4998168721767794
0.503127345509132,0.4181681681681681,0.664914914914915,0.7788879780944242,0.0,0.4672201196435112
1.0000000000000002,0.0,0.5593093093093093,0.3170396079320509,0.0,0.0
0.4158118588941707,0.5387887887887887,0.6226226226226226,0.5030207370458866,0.4925981477928737,0.0002755637720843
0.5313985489116839,0.538038038038038,0.7562562562562563,0.5001377818860422,0.4943840800879013,0.5599595374714408
0.8351263447585691,0.6944444444444443,0.5497997997997998,0.5208312259099709,0.464778415333903,0.5858572998238485
0.5091318488866652,0.4074074074074073,0.6926926926926926,0.471904703768945,1.0,0.2586061356541151
0.5341506129597199,0.4254254254254253,0.7452452452452452,0.7720355093569597,0.0,0.754165721959642
0.4866149612209158,0.1323823823823823,0.7467467467467467,0.5954252925684985,0.4852730348640494,0.4613757259710135
0.5181386039529648,0.2867867867867867,0.4992492492492492,0.0,0.5118422659015993,0.4353558784031254
0.6087065298974232,0.4522022022022021,0.6881881881881882,0.4365156879501892,1.0,0.2158623576399184
0.4746059544658495,0.6343843843843843,0.6731731731731732,0.4955438896349652,0.4995430524792019,1.0
0.6134600950713036,0.3956456456456456,0.6108608608608608,0.5454313968292726,1.0,0.2571428571428571
0.8626469852389294,0.5783283283283283,0.642142142142142,0.7358843329787048,0.0807279766991646,0.5824842597275756
0.4961220915686766,0.5010010010010009,0.7582582582582582,0.5010830702687619,0.4948567242792612,0.4997854788356559
0.8096072054040533,0.0025025025025024,0.8993993993993994,0.9392626052984984,1.0,0.9289167553237874
0.6017012759569679,0.5432932932932932,0.6276276276276276,0.5026091354622669,0.4907825662312294,0.0
0.469352014010508,0.2412412412412412,0.7122122122122121,0.7848858503235259,0.5200673212759649,0.4640302073704588
0.4961220915686766,0.5010010010010009,0.7585085085085085,0.5012051554842423,0.4949177668870014,0.4998011755062176
0.9922441831373532,0.633133133133133,0.3078078078078078,0.4051554842422868,1.0,0.384934684409718
0.4330748061045785,0.2882882882882882,0.5935935935935935,0.3876362558208486,1.0,0.1426112283516752
0.495371528646485,0.1691691691691691,0.8058058058058057,0.7378830423635698,0.5314369429862044,0.5416014092122016
0.5731798849136854,0.5760760760760759,0.7229729729729729,0.5021661405375237,0.4952386765962642,0.1475713762491933
0.4420815611708782,0.4917417417417417,0.7617617617617617,0.5078291504613077,0.4934527443012365,0.5791112196313026
0.5574180635476609,0.4702202202202201,0.6451451451451451,0.3088598984948637,1.0,0.1780455901076094
0.4961220915686766,0.5012512512512511,0.7587587587587588,0.5011755062176256,0.4949334635575632,0.4998622181139578
0.5113835376532401,0.6914414414414414,0.5442942942942943,0.9893018469749026,0.4738737638871932,0.5501473742958299
0.4706029522141607,0.7677677677677677,0.5643143143143143,0.8810733034515235,0.3452116434414078,0.6440919476080018
0.5619214410808108,0.4797297297297296,0.6323823823823823,0.4981390725011772,0.4980012906151351,0.0
0.4961220915686766,0.5010010010010009,0.7585085085085085,0.5011912028881874,0.4949038142909465,0.4998622181139578
0.4961220915686766,0.5015015015015014,0.7582582582582582,0.501220852154804,0.494872420949823,0.4998011755062176
0.4983737803352516,0.1313813813813813,0.6726726726726726,0.7362959345623246,0.5427455220887036,0.5556255123218864
0.6882661996497375,0.4471971971971971,0.6211211211211211,0.3755341228177268,1.0,0.2715628651655998
0.7913435076307231,0.2337337337337336,0.7184684684684685,0.9890419798733802,1.0,0.6106702478329874
0.5376532399299476,0.5040040040040039,0.7572572572572571,0.5059507822174163,0.3854544186127631,0.5185569527530216
0.4961220915686766,0.5012512512512511,0.7582582582582582,0.5011441128765021,0.4949491602281249,0.4998011755062176
0.4883662747060296,0.847097097097097,0.8048048048048048,0.0,0.3066013220084762,0.5635610513281127
0.5323992994746061,0.8581081081081079,0.6861861861861861,0.0,0.5112475364947591,0.5553970385614874
0.5126344758568928,0.8173173173173172,0.6584084084084083,0.7946073216247798,0.4701344681444791,0.5701536529640546
0.4963722792094072,0.5012512512512511,0.7585085085085085,0.5012365488253658,0.4948881176203847,0.4998325688473412
0.5266449837378034,0.1416416416416416,0.4889889889889889,0.0093552156548127,0.5230741057257966,0.5027469173483091
0.4000500375281462,0.5515515515515514,0.6223723723723723,0.5041962432635122,0.4947346390637808,4.5345937178475904e-05
0.4961220915686766,0.5010010010010009,0.7585085085085085,0.501069117672707,0.4949177668870014,0.4998482655179029
0.7600700525394046,0.6866866866866865,0.582082082082082,0.3708495386922929,0.6596874618483701,0.5893820744022185
0.430572929697273,0.5290290290290289,0.5738238238238238,0.5019690601182483,0.5004569475207981,0.0
0.7490617963472606,0.3348348348348348,0.2795295295295295,0.0324293213806093,0.0,0.0051118823796152
0.4941205904428322,0.4174174174174173,0.7212212212212212,0.5832464202870746,0.0,0.5660934475120777
1.0000000000000002,0.0015015015015014,0.9009009009009008,0.9982751103127124,1.0,1.0
1.0000000000000002,0.0,1.0,0.2015173448209707,0.0773409840068368,0.0
0.5509131848886666,0.6203703703703702,0.6373873873873874,0.5071873310427821,0.4955281929644034,0.995100894710222
0.516387290467851,0.6468968968968968,0.6433933933933933,1.0,0.5197935015783874,0.6622826447145822
0.4836127095321492,0.7442442442442441,0.6143643643643644,0.8443709995290999,0.4457645150600833,0.5353436698815773
0.4620965724293221,0.2332332332332332,0.7394894894894894,0.7248042276366046,0.4446186581090744,0.4728813854927882
1.0000000000000002,0.0015015015015014,1.0,0.9996947869612988,1.0,0.0
1.0000000000000002,0.994244244244244,0.0,0.3373667963095383,1.0,0.0
0.4983737803352516,0.5745745745745745,0.5688188188188188,0.5003976489875648,0.4983361529204527,0.9116103039921866
0.4803602702026521,0.8143143143143141,0.7975475475475475,1.0,0.2841986849678218,0.7422624134503026
0.4963722792094072,0.5012512512512511,0.7582582582582582,0.5011144636098854,0.494872420949823,0.4998011755062176
0.4548411308481362,0.8748748748748747,0.6889389389389389,0.0,0.5175349250919999,0.4339065524879223
0.4961220915686766,0.5012512512512511,0.7585085085085085,0.5011144636098854,0.4949177668870014,0.4997261803024225
1.0000000000000002,0.4401901901901901,0.6529029029029029,0.4718750545023283,1.0,0.9506775729459164
0.6164623467600702,0.5575575575575574,0.6894394394394394,0.5006557720145804,0.4973141252594311,0.9868758393358564
0.5271453590192646,0.5775775775775774,0.5773273273273273,0.5051118823796152,0.4946596438599857,1.0
0.3790342757067802,0.5245245245245245,0.7735235235235235,0.5029003959049131,0.494108516315817,0.37651080454157
0.8791593695271456,0.751251251251251,0.6086086086086085,0.586282854003523,0.2621466069030469,0.5955613303800338
0.5456592444333251,0.5535535535535534,0.7224724724724725,0.5018923208399463,0.4953293684706211,0.603116661143764
0.9146860145108834,0.0,0.7069569569569569,0.0,0.0,0.0
0.8441330998248688,0.5027527527527527,0.0,0.7612937544691909,0.3918935416921011,0.0
0.3447585689266951,0.4567067067067066,0.6809309309309308,0.4785897413537506,1.0,0.3163227933097302
0.4543407555666751,0.311061061061061,0.6539039039039038,0.4959258419519682,0.51101906273436,0.5705495578771125
0.4415811858894172,0.5152652652652652,0.6066066066066066,0.495711320787624,0.496398486143328,0.0
0.6837628221165876,0.4874874874874874,0.6246246246246245,0.4888448994541047,1.0,0.4223538029544622
0.6417312984738556,0.3636136136136135,0.0910910910910911,0.508118666829447,0.0,0.0
0.328246184638479,0.5868368368368367,0.6736736736736736,0.4925528018556953,0.5014807192563266,0.9933777490974414
0.5699274455841883,0.0,0.7942942942942943,1.0,1.0,0.9890419798733802
0.4368276207155367,0.5392892892892892,0.5407907907907907,0.5001674311526588,0.4913162530303294,0.0
0.5544158118588943,0.569069069069069,0.5868368368368369,0.5031288696653121,0.4854265134206533,1.0
0.4961220915686766,0.5010010010010009,0.7585085085085085,0.5012051554842423,0.4949038142909465,0.4998168721767794
0.51588691518639,0.6544044044044043,0.6754254254254254,0.1327223258977623,0.4618326734918115,0.4631006156583009
0.4065549161871404,0.5062562562562561,0.6248748748748748,0.4997401328984774,0.500381952317003,0.0
0.5881911433575183,0.5813313313313312,0.5900900900900901,0.5760887385109092,0.4930864886547953,1.0
0.8253690267700777,0.337087087087087,0.1121121121121121,0.0451261837905715,0.0,0.0
0.7803352514385791,0.0137637637637637,1.0,1.0,0.6464255192981845,0.439049828208661
0.4308231173380036,0.4997497497497496,0.77002002002002,0.5016324537384237,0.4954218044194848,0.4732179918726128
0.7480610457843384,0.5495495495495495,0.0,0.2559063083174914,0.4933620524268797,0.0
0.4961220915686766,0.5010010010010009,0.7585085085085085,0.501220852154804,0.4948270750126445,0.4998011755062176
0.4493370027520642,0.1694194194194193,0.5715715715715716,0.0101784188220521,0.6922528210405148,0.5998360569963549
0.4500875656742558,0.1869369369369369,0.7847847847847848,0.6296701955107522,0.5125747771944817,0.4773985384655632
0.4958719039279461,0.5010010010010009,0.7582582582582582,0.5011598095470639,0.4949038142909465,0.4997401328984774
0.453840380285214,0.6458958958958958,0.6501501501501501,1.0,0.5341071210562115,0.616362907023388
0.4958719039279461,0.5010010010010009,0.7585085085085085,0.5011912028881874,0.4949334635575632,0.4998482655179029
0.4961220915686766,0.5010010010010009,0.7582582582582582,0.5011598095470639,0.4949177668870014,0.4998011755062176
0.9967475606705032,0.2032032032032031,1.0,0.4437954549418351,0.0,0.1732092715000784
0.4963722792094072,0.5010010010010009,0.7585085085085085,0.5012051554842423,0.4948881176203847,0.4998168721767794
0.7307980985739306,0.1363863863863863,0.8153153153153152,0.9998011755062176,1.0,0.8323769991454035
0.4158118588941707,0.3598598598598598,0.7167167167167167,0.7249123602560301,0.0,0.5195336344768648
0.8248686514886167,0.256006006006006,1.0,0.9044229729494044,0.4625965781258175,0.861815232746743
0.8138603952964725,0.5422922922922921,0.5748248248248248,0.7589741353750632,0.0,0.573572038997506
0.4235676757568177,0.3465965965965965,0.6504004004004004,0.4482358686363081,0.4280150688037393,0.494795681671521
0.1451088316237178,0.5437937937937937,0.844094094094094,0.4118387777525856,0.4799780246612135,0.5097668172384324
0.4548411308481362,0.699199199199199,0.2745245245245245,0.0,0.6341106092052252,0.4582625529762631
0.4961220915686766,0.5010010010010009,0.7587587587587588,0.5011284162059403,0.4949491602281249,0.4998168721767794
0.5704278208656494,0.1936936936936936,0.7084584584584583,1.0,0.5549993895739226,0.4894239321903831
0.4963722792094072,0.5012512512512511,0.7582582582582582,0.5010830702687619,0.4949038142909465,0.4997715262396009
0.4963722792094072,0.5015015015015014,0.7590090090090089,0.5011284162059403,0.4949038142909465,0.4997401328984774
0.4423317488116088,0.4261761761761761,0.7219719719719719,0.3016429181854649,1.0,0.3723895564818529
0.4308231173380036,0.5080080080080079,0.694944944944945,0.5291016272215149,0.4906447843451872,0.6597031585189319
0.4776082061546161,0.8143143143143141,0.6531531531531531,0.8287911819592932,0.3770898372778485,0.5454313968292726
0.4961220915686766,0.5012512512512511,0.7582582582582582,0.501220852154804,0.4949177668870014,0.4998482655179029
0.4961220915686766,0.5012512512512511,0.7582582582582582,0.5011912028881874,0.4949038142909465,0.4998482655179029
0.4763572679509633,0.7757757757757757,0.601101101101101,0.991422641575248,0.4520362069867625,0.7219212724767602
0.7885914435826872,0.4451951951951951,0.5395395395395395,0.806235066362035,0.0,0.3887507194307341
0.4713535151363524,0.7379879879879878,0.6291291291291291,1.0,0.426504700280796,0.546240647400457
0.4158118588941707,0.5212712712712712,0.6338838838838838,0.5023649650313061,0.4910563859288069,0.0008249472417461
0.8498874155616714,0.0,0.9827327327327328,0.9489683799291906,1.0,0.9939864311003366
0.7618213660245186,0.5257757757757757,0.5282782782782782,0.8125224549592758,0.0,0.4732633378097912
0.9992494370778086,0.0,0.8073073073073073,1.0,1.0,1.0
0.3997998498874157,0.6749249249249248,0.4657157157157157,0.0,0.3542145560458343,0.2461534436751138
0.7965974480860647,0.5407907907907907,0.5047547547547547,0.3392748138200464,0.969982733662382,0.5317421560249054
0.4658493870402803,0.7482482482482481,0.6646646646646646,1.0,0.590571533215899,0.5459493869578108
0.21916437327996,0.4884884884884884,0.6756756756756757,0.3625477440396253,0.0,0.4638784728883618
0.7818363772829624,0.2872872872872872,0.1403903903903904,0.2372115736784275,0.0,0.0
0.5689266950212661,0.2369869869869869,0.4069069069069069,0.0,0.4283673718541256,0.4042851910633622
0.5026269702276709,0.8155655655655654,0.6691691691691691,0.7628494689293126,0.4949491602281249,0.522203812546872
0.4553415061295973,0.3133133133133132,0.4952452452452452,0.6661876275354484,0.0,0.2898006522838655
0.3214911183387542,0.3333333333333332,0.6133633633633633,0.4826638994017824,0.0,0.3235868636308143
0.8841631223417565,0.6986986986986986,0.4919919919919919,0.6601147601025515,0.1535518077332263,0.5222491584840504
0.5351513635226421,0.4897397397397396,0.6403903903903904,1.0,0.546774334199557,0.3534820447529518
0.9036777583187392,0.0,0.755005005005005,1.0,1.0,1.0
0.23742807105329,0.3778778778778778,0.7647647647647646,0.3028166803285836,0.0,0.3339344576800321
0.6504878658994248,0.4619619619619619,0.6614114114114114,0.7763398852398975,0.0,0.4840225334426287
0.4961220915686766,0.5012512512512511,0.7585085085085085,0.5013115440291609,0.4948427716832063,0.4998168721767794
0.5554165624218165,0.2347347347347347,0.7204704704704704,0.9914836841829884,0.4200341838603345,0.4810000523222352
0.7783337503127348,0.5688188188188187,0.4597097097097097,0.3831940980518687,0.8882466818982506,0.5751591467987512
0.5389041781336004,0.877127127127127,0.7312312312312312,0.0,0.4166314944974449,0.4256658004429949
0.4410808106079561,0.5242742742742742,0.6991991991991992,0.5027015714111307,0.4959868845597084,0.1650138653923296
0.6209657242932201,0.4364364364364363,0.6796796796796796,0.6815703646859794,0.0,0.5164972007604165
1.0000000000000002,0.0,0.3738738738738738,0.1391771456476621,0.0,0.0
0.4961220915686766,0.5012512512512511,0.7585085085085085,0.5011598095470639,0.4948567242792612,0.4997715262396009
0.4961220915686766,0.5012512512512511,0.7585085085085085,0.5011598095470639,0.494872420949823,0.4998011755062176
0.4110582937202903,0.2917917917917917,0.6366366366366366,0.6307846591206376,0.0,0.5469871112893943
0.4896172129096824,0.6914414414414414,0.6006006006006006,1.0,0.3915115893750981,0.4225369307776828
0.870652989742307,0.051051051051051,0.2104604604604605,0.1803652092017371,0.0,0.0
0.4963722792094072,0.5012512512512511,0.7585085085085085,0.501220852154804,0.4949177668870014,0.4998325688473412
0.4963722792094072,0.5012512512512511,0.7582582582582582,0.5011598095470639,0.4948427716832063,0.4998011755062176
0.4908681511133351,0.8393393393393391,0.7262262262262262,0.0,0.4830755009854021,0.4052304794460819
0.8378784088066051,0.673173173173173,0.5755755755755756,0.5276679979768736,0.416478015940841,0.5151385667195703
0.4175631723792846,0.5377877877877877,0.6258758758758758,0.4959554912185848,0.4952997192040044,0.0
0.4423317488116088,0.4559559559559559,0.7132132132132132,0.3067234072239566,1.0,0.3336745905785095
0.411808856642482,0.4887387387387386,0.7557557557557557,0.5004883408619216,0.4955438896349652,0.6982506932696164
0.4928696522391795,0.2132132132132131,0.5780780780780781,0.1169576364302283,0.4698902977135183,0.3787850776985192
1.0000000000000002,0.0,1.0,0.0152606519350506,0.0,0.0
0.2221666249687266,0.5663163163163162,0.783033033033033,0.305305474649877,0.9880652981495368,0.4880356488829203
0.5531648736552416,0.4792292292292291,0.3173173173173173,0.0,0.5245687775781781,0.4543854753475068
1.0000000000000002,0.0613113113113112,0.2657657657657657,0.4518984251007203,0.0,0.0
0.4961220915686766,0.5010010010010009,0.7582582582582582,0.5011755062176256,0.4948881176203847,0.4998168721767794
0.2434325744308232,0.4599599599599598,0.6826826826826826,0.4701501648150409,0.0,0.3627448244589009
1.0000000000000002,0.0,1.0,0.3161710588276331,0.1595653766328897,0.0
0.4961220915686766,0.5012512512512511,0.7585085085085085,0.5011912028881874,0.4948881176203847,0.4997261803024225
0.4961220915686766,0.5007507507507507,0.7582582582582582,0.5011912028881874,0.4949631128241799,0.4998011755062176
0.4961220915686766,0.5012512512512511,0.7585085085085085,0.5010987669393236,0.4948881176203847,0.4997715262396009
0.4963722792094072,0.5012512512512511,0.7582582582582582,0.5011912028881874,0.4949177668870014,0.4997558295690392
0.6379784838628973,0.4582082082082081,0.6706706706706707,0.4178819959188656,1.0,0.2650923487451384
0.5176382286715038,0.6336336336336336,0.7354854854854854,1.0,0.5872455831313114,0.7136177337495857
0.4963722792094072,0.5012512512512511,0.7582582582582582,0.5012051554842423,0.494872420949823,0.4997854788356559
0.4345759319489618,0.5888388388388387,0.7077077077077076,0.4696618239531193,0.4931946212742208,1.0
0.7453089817363023,0.0795795795795795,1.0,0.981092488271099,0.8917557598060589,0.3342239740481713
0.8864148111083314,0.3063063063063062,0.0,0.3662103005040376,0.0919755131939236,0.0
0.8729046785088819,0.0663163163163162,0.8991491491491491,0.9832900221497464,1.0,0.4277865950433402
0.4963722792094072,0.5010010010010009,0.7585085085085085,0.5013272406997227,0.4947660324049043,0.4998011755062176
1.0000000000000002,0.07007007007007,0.803053053053053,0.9672515129846346,1.0,1.0
0.6382286715036278,0.5487987987987987,0.5480480480480481,0.5038613809581945,0.5011755062176256,0.9889059420618448
0.2251688766574932,0.4892392392392392,0.7725225225225225,0.3275999790711059,0.9828923731621816,0.4243228630727105
0.505879409557168,0.4874874874874874,0.6564064064064064,0.5007482079634442,0.4929957967804385,0.0
0.4018013510132601,0.6611611611611611,0.7222222222222222,1.0,0.6694246298201859,0.3648220171965746
0.4961220915686766,0.5010010010010009,0.7585085085085085,0.501220852154804,0.4948427716832063,0.4998168721767794
0.9909932449337004,0.0,1.0,0.3881089000122085,0.0001377818860421,0.0
0.5464098073555168,0.9206706706706704,0.7294794794794794,0.0,0.4206289132671748,0.4920330676526501
0.4966224668501377,0.5015015015015014,0.7587587587587588,0.5013429373702845,0.494872420949823,0.4998168721767794
0.5959469602201652,0.4574574574574573,0.6433933933933933,0.2600415089732633,1.0,0.3685909622059054
0.8801601200900677,0.609109109109109,0.215965965965966,0.7507019899890124,0.0,0.0474458028846992
0.4963722792094072,0.5012512512512511,0.7585085085085085,0.5011912028881874,0.4949177668870014,0.4998325688473412
0.5686765073805355,0.0768268268268267,0.9244244244244244,1.0,1.0,0.5693287057223084
0.4858643982987242,0.2902902902902902,0.263013013013013,0.0002441704309608,0.7334565812651517,0.5746551092662678
0.4488366274706031,0.548048048048048,0.7552552552552552,0.5008999424455413,0.4948567242792612,0.4929347541726983
0.4996247185389043,0.683183183183183,0.6669169169169169,1.0,0.4843120498107679,0.5289795420060345
0.9714786089567178,0.4256756756756756,0.2352352352352352,0.7278877513647383,0.0,0.0762579137380748
0.367525644233175,0.4024024024024023,0.5543043043043043,0.5235624465877182,0.0,0.4234979158309643
0.5619214410808108,0.5658158158158157,0.7279779779779779,0.5009609850532815,0.4951165913807838,0.3798681479672812
0.8991743807855894,0.0002502502502502,0.7292292292292292,1.0,1.0,0.4677241571759946
0.4733550162621968,0.4879879879879879,0.6208708708708708,1.0,0.5474458028846992,0.4689746585974153
0.7310482862146612,0.4569569569569569,0.6458958958958958,0.3617227967978792,1.0,0.280506479236793
0.4961220915686766,0.5012512512512511,0.7585085085085085,0.5011598095470639,0.4948881176203847,0.4998325688473412
0.4961220915686766,0.5015015015015014,0.7585085085085085,0.5011441128765021,0.4949177668870014,0.4998482655179029
0.4563422566925195,0.335085085085085,0.0215215215215215,0.0070042032195615,0.7712123061897205,0.6384603310253414
0.6815111333500127,0.4947447447447446,0.5980980980980981,0.7729371958770079,0.0,0.5005336867991
0.4370778083562673,0.5100100100100099,0.6498998998998998,0.5058286970019359,0.4898826237856881,0.0
1.0000000000000002,0.1534034034034033,0.4909909909909909,1.0,0.0,0.0
0.6279709782336754,0.5132632632632632,0.6403903903903904,0.5032963008179709,0.4972530826516909,0.986677014842074
0.5476607455591695,0.5598098098098097,0.7662662662662663,0.5016481504089855,0.4945515112405602,0.4822522978181628
0.430572929697273,0.5653153153153152,0.7479979979979979,1.0,0.6147757992221428,0.6668137502834122
0.9777332999749816,0.102102102102102,0.3873873873873873,0.3143694298620437,0.0,0.0
0.1921441080810608,0.5397897897897896,0.7402402402402402,0.4496555452848946,0.9918813331705528,0.4714477562481469
0.1833875406554917,0.4727227227227226,0.7167167167167167,0.4073076721837557,0.0662312293981198,0.3849503810802798
0.4961220915686766,0.5010010010010009,0.7585085085085085,0.5010987669393236,0.4949177668870014,0.4997558295690392
0.6772579434575934,0.3968968968968968,0.6248748748748748,0.3907040828784205,1.0,0.2171442524024626
0.5864398298724044,0.0795795795795795,0.7357357357357357,0.9005772886617716,1.0,0.7379597816418717
0.6700025018764075,0.4677177177177176,0.5738238238238238,0.5437832464202871,1.0,0.4047892285958456
0.6569927445584189,0.4772272272272271,0.6779279279279279,0.4996790902907372,0.4974972530826517,0.005050839771875
1.0000000000000002,0.0,1.0,0.5575928283656277,0.0038613809581945,0.0
0.4165624218163624,0.5553053053053052,0.5993493493493494,0.49801524321119,0.4928580148943963,0.0
0.5641731298473857,0.4562062062062061,0.6181181181181181,0.4988855363901145,0.4981233758306155,0.0585398608228543
0.649236927695772,0.5455455455455455,0.5680680680680681,0.4360273470882676,1.0,0.348415508310515
0.4961220915686766,0.5010010010010009,0.7587587587587588,0.5012051554842423,0.4949038142909465,0.4997854788356559
0.8156117087815864,0.0,1.0,0.0156426042520536,0.4383016202452169,0.0
0.5061295971978985,0.7522522522522521,0.5558058058058057,1.0,0.2964072065158624,0.6080454157001587
0.9789842381786342,0.0107607607607607,1.0,0.8687270000174407,0.0039224235659348,0.0128346442960042
0.563422566925194,0.364114114114114,0.4869869869869869,0.0,0.5147566144025673,0.3131782269738563
0.8466349762321743,0.0065065065065064,0.2847847847847848,0.1602071960514153,0.0,0.0
0.4133099824868653,0.5012512512512511,0.6921921921921921,0.5002598671015226,0.4964298794844515,0.2881368052043183
0.4495871903927947,0.5585585585585585,0.798048048048048,0.5483910912674189,0.4919127265116765,0.3531000924359488
0.4961220915686766,0.5012512512512511,0.7585085085085085,0.5011441128765021,0.4948881176203847,0.4997854788356559
0.3340005003752815,0.3808808808808808,0.6203703703703703,0.5169244990145979,0.0,0.3788914662434379
0.3042281711283463,0.4461961961961961,0.7252252252252251,0.3124928056926592,1.0,0.5046235415176936
0.4891168376282213,0.4624624624624623,0.7324824824824825,1.0,0.5452168756649284,0.5394178279296091
1.0000000000000002,0.0,0.2124624624624624,0.4019655719692345,0.0,0.0
0.498123592694521,0.5005005005005004,0.7572572572572571,0.5009766817238432,0.495100894710222,0.4951619373179622
0.4961220915686766,0.5012512512512511,0.7582582582582582,0.5012051554842423,0.494872420949823,0.4998011755062176
0.6577433074806106,0.0993493493493493,0.7882882882882882,1.0,1.0,0.9124335071594258
0.4796097072804605,0.4504504504504503,0.6579079079079079,0.8121108533756562,0.0,0.5410206324014162
0.3777833375031275,0.4612112112112111,0.7537537537537538,0.541341542110679,0.4935748295167169,0.5912743952421647
0.5331498623967977,0.3956456456456456,0.5893393393393394,1.0,0.6045363377923505,0.6591677276453249
0.4335751813860397,0.1606606606606606,0.509009009009009,0.1509880182081378,0.4285801489439629,0.5322148002162652
0.7605704278208658,0.125125125125125,0.1176176176176176,0.3244118108725604,0.0,0.0
0.4733550162621968,0.4942442442442442,0.5693193193193193,0.5002145211643442,0.4927969722866561,0.0
0.4390793094821117,0.7467467467467466,0.7017017017017017,1.0,0.4972827319183076,0.642930393986431
0.8171128346259696,0.6601601601601601,0.5397897897897898,0.6053752376301516,0.5253012888710605,0.552283865566737
0.4458343757818365,0.595095095095095,0.6769269269269269,0.4966130073076721,0.4899279697228665,1.0
0.568426319739805,0.4907407407407406,0.6561561561561561,0.5008092505711844,0.4898826237856881,0.0382126724453669
0.4833625218914187,0.6408908908908908,0.5195195195195195,0.0,0.2353506461796048,0.6193382981320962
0.7728296222166626,0.5858358358358358,0.5362862862862863,0.3890402357988733,0.9992831853776794,0.4391405200830179
0.4961220915686766,0.5012512512512511,0.7585085085085085,0.5012818947625443,0.4948427716832063,0.4997715262396009
0.4776082061546161,0.8408408408408408,0.7167167167167167,0.0,0.4658614856026649,0.3273418560440902
0.4308231173380036,0.4912412412412411,0.6584084084084083,0.4989779723389783,0.500838899837801,0.0
0.4961220915686766,0.5007507507507507,0.7582582582582582,0.5011598095470639,0.4949491602281249,0.4998011755062176
0.583937953465099,0.5553053053053052,0.6008508508508508,0.4969635662835516,0.4949945061653034,0.1416345466278319
0.4961220915686766,0.5010010010010009,0.7585085085085085,0.5012365488253658,0.4948427716832063,0.4998325688473412
0.4963722792094072,0.5010010010010009,0.7585085085085085,0.5011755062176256,0.4950258995064269,0.4998011755062176
0.4958719039279461,0.5010010010010009,0.7587587587587588,0.5011755062176256,0.4948567242792612,0.4998325688473412
0.4961220915686766,0.5010010010010009,0.7582582582582582,0.5011755062176256,0.4947799850009592,0.4998011755062176
0.57067800850638,0.4914914914914914,0.6671671671671671,0.4982751103127125,0.4981687217677939,0.0
0.882161621215912,0.0035035035035034,1.0,1.0,1.0,0.457118440099761
0.6102076557418065,0.5725725725725724,0.7322322322322322,0.5014336292446413,0.4935451802501003,0.6939166681200621
0.4961220915686766,0.5010010010010009,0.7585085085085085,0.5012365488253658,0.494872420949823,0.4998325688473412
0.5303977983487617,0.4637137137137136,0.5583083083083082,0.5020911453337287,0.4987948445157577,0.0
0.3292469352014011,0.6116116116116115,0.7860360360360359,0.4247030713152065,0.3119120288818738,0.4482044752951846
0.3817863397548162,0.4461961961961961,0.7382382382382382,0.502914348500968,0.4939567818337199,0.8283935329717285
0.6072054040530399,0.5410410410410409,0.6644144144144144,0.505204318328479,0.4986570626297155,0.0603100964473202
0.3437578183637729,0.3318318318318317,0.8108108108108107,0.6593212062019289,0.0,0.5919005179901285
0.4963722792094072,0.5012512512512511,0.7582582582582582,0.5011912028881874,0.4949038142909465,0.4997401328984774
1.0000000000000002,0.4416916916916916,0.5743243243243243,0.4059647348134712,1.0,0.2788426321572457
0.5874405804353267,0.5292792792792792,0.5665665665665666,0.5053403561400143,0.4949334635575632,1.0
0.5931948961721293,0.4834834834834834,0.5715715715715716,0.5016481504089855,0.5026858747405689,0.0
0.2066549912434326,0.4774774774774774,0.6914414414414414,0.4685473603432338,1.0,0.47343076896245
0.5043782837127847,0.2197197197197196,0.2282282282282282,0.0023649650313061,0.5529082442401939,0.6566649807279767
0.8749061796347262,0.1721721721721721,0.0425425425425425,0.0937614454889512,0.0026544813994454,0.0
0.4961220915686766,0.5007507507507507,0.7585085085085085,0.501220852154804,0.4949038142909465,0.4998011755062176
0.4711033274956218,0.7364864864864864,0.6238738738738738,0.6604810157489928,0.4521582922022429,0.4748504456110365
0.4961220915686766,0.5015015015015014,0.7585085085085085,0.5011912028881874,0.4949491602281249,0.4998325688473412
0.8704028021015764,0.0215215215215214,0.7359859859859859,1.0,1.0,0.9939114358965416
0.2849637227920941,0.5065065065065064,0.6493993993993994,0.2502903884053927,1.0,0.4411706228090064
0.6369777332999751,0.4614614614614614,0.664914914914915,0.2920278354291295,1.0,0.2234612902663201
0.2919689767325495,0.4607107107107106,0.7439939939939939,0.5010377243315834,0.4987024085668939,0.7913563667439873
0.4963722792094072,0.5012512512512511,0.7585085085085085,0.5011441128765021,0.4949038142909465,0.4998168721767794
0.3805354015511635,0.3768768768768768,0.6539039039039038,0.6729790536651725,0.0,0.5429896925196644
0.5779334500875658,0.5588088088088087,0.6616616616616616,0.5003662556464412,0.4931178819959189,0.0029457418420915
0.3500125093820366,0.0815815815815815,1.0,1.0,1.0,0.0153216945427909
0.7332999749812361,0.1023523523523523,0.832082082082082,1.0,1.0,1.0
0.550162621966475,0.4517017017017016,0.6684184184184184,0.8022376475923052,0.0,0.3646528419694089
0.4513385038779085,0.6136136136136136,0.7237237237237237,1.0,0.494413729354518,0.7312747440570662
0.3445083812859646,0.6306306306306305,0.6391391391391391,0.499007621605595,0.4926138444634355,0.9856392905104908
0.1453590192644484,0.5760760760760759,0.8483483483483483,0.505432792088878,0.1169419397596665,0.5228613286359594
0.4958719039279461,0.5010010010010009,0.7585085085085085,0.5011598095470639,0.4948881176203847,0.4998325688473412
0.4961220915686766,0.5010010010010009,0.7585085085085085,0.5010987669393236,0.4949177668870014,0.4997854788356559
0.3765323992994747,0.5497997997997996,0.6754254254254254,0.5061339100406369,0.4951462406474005,0.9719204004395068
0.5361521140855643,0.7059559559559558,0.6611611611611611,0.2930655597607129,0.5062106493189389,0.5226468074716152
0.4961220915686766,0.5012512512512511,0.7582582582582582,0.5011144636098854,0.4949038142909465,0.4997715262396009
0.9166875156367278,0.0415415415415415,1.0,0.7143659417130299,0.8353837835952351,0.3482323804872944
0.714535901926445,0.1128628628628627,0.2825325325325325,0.0,0.0,0.0
0.850137603202402,0.4469469469469468,0.1018518518518518,0.2804907825662313,0.0,0.0
0.1636227170377784,0.605105105105105,0.7527527527527527,0.4337844672724419,0.5047159774665574,0.3889024539128312
0.4958719039279461,0.5010010010010009,0.7587587587587588,0.501220852154804,0.494872420949823,0.4998011755062176
0.5774330748061047,0.1338838838838838,0.6961961961961962,0.6479515844916894,0.4652824528663865,0.4380121038770776
0.7623217413059797,0.4757257257257256,0.5825825825825826,0.8205347332438042,0.0,0.4956973681915691
0.5176382286715038,0.2600100100100099,0.7314814814814814,1.0,0.6097703053874461,0.4472905802535884
0.8153615211408558,0.5748248248248247,0.5292792792792792,0.3356122573556342,0.9480684374836492,0.4892268517711076
0.4716037027770829,0.3788788788788788,0.6308808808808808,0.8124474597554807,0.0,0.3388161222247414
0.4295721791343508,0.8073073073073072,0.8018018018018018,0.0,0.5983849870066449,0.4707152449552645
0.0945709281961472,0.5718218218218217,0.7780280280280281,0.4017370982088354,0.160236845318032,0.4575753876205591
1.0000000000000002,0.5893393393393392,0.3726226226226226,0.2582712733487975,1.0,0.3328810366778869
0.4961220915686766,0.5010010010010009,0.7582582582582582,0.5010220276610217,0.4948427716832063,0.4998482655179029
0.4961220915686766,0.5010010010010009,0.7582582582582582,0.501220852154804,0.4949177668870014,0.4998622181139578
1.0000000000000002,0.0,1.0,0.0038613809581945,0.0,0.0
0.519139354515887,0.6796796796796796,0.5990990990990991,0.3502328339466662,0.4338141165390585,0.4907529169646127
0.4473355016262198,0.3566066066066065,0.5825825825825826,1.0,0.6302352756509758,0.7197080419275511
0.4170627970978234,0.5528028028028027,0.5713213213213213,0.5013272406997227,0.4956206289132672,0.002900395904913
0.4963722792094072,0.5012512512512511,0.7582582582582582,0.5011912028881874,0.4949038142909465,0.4997854788356559
0.8033525143857896,0.613113113113113,0.4484484484484484,0.464855154612205,0.7414235136125016,0.5242182186022987
0.5891918939204405,0.3028028028028027,0.6524024024024023,0.7199975582956903,0.3732145037235991,0.6224828644679701
0.5201401050788093,0.7535035035035034,0.7354854854854854,0.0,0.4058722988646075,0.4737516786717128
0.5694270703027272,0.5350350350350349,0.762012012012012,0.5008545965083628,0.4940945637197621,0.3625163506985018
0.4555916937703279,0.7379879879879878,0.6168668668668669,1.0,0.3455011598095471,0.5863299440152083
0.3670252689517139,0.30005005005005,0.73998998998999,0.5867258489282662,0.5815686206114725,0.4764672026788984
0.5093820365273957,0.4006506506506506,0.6856856856856857,0.8627308718628459,0.0,0.4565219666184139
0.5138854140605456,0.4722222222222221,0.6466466466466466,0.3172070390847097,1.0,0.4243525123393271
0.6137102827120342,0.3448448448448448,0.4221721721721722,0.0,0.741149693914924,0.509873205783351
0.4963722792094072,0.5015015015015014,0.7585085085085085,0.5014493259152031,0.4948270750126445,0.4997854788356559
0.4420815611708782,0.4742242242242241,0.7585085085085085,1.0,0.7096499642464726,0.6482411008598288
0.592194145609207,0.5968468468468467,0.5930930930930931,0.5032509548807925,0.500151734482097,0.9972216893105672
0.9291968976732552,0.1056056056056055,0.9917417417417416,0.9563388387951932,0.6694089331496241,0.0
0.8011008256192146,0.1468968968968969,1.0,0.8859567120707397,0.6430385266058566,0.61146380173361
0.7730798098573932,0.2922922922922922,1.0,0.0054781380260565,0.0109876693932365,0.0
0.5334000500375283,0.574074074074074,0.7354854854854854,0.5022289272197709,0.4933306590857561,0.4017214015382737
0.8581436077057796,0.0,0.5573073073073073,0.0,0.0,0.0
0.3405053790342758,0.4269269269269268,0.6141141141141141,0.2097580968658981,1.0,0.433311823081082
0.4823617713284965,0.7124624624624624,0.5533033033033032,1.0,0.4640616007115824,0.3643022829935295
0.4961220915686766,0.5012512512512511,0.7587587587587588,0.5011755062176256,0.494872420949823,0.4997715262396009
0.4958719039279461,0.5012512512512511,0.7587587587587588,0.5011441128765021,0.4949038142909465,0.4998168721767794
0.472104078058544,0.5202702702702702,0.7935435435435434,1.0,0.6533843765805675,0.5801489439628861
0.6572429321991495,0.5247747747747746,0.6816816816816816,0.5993477161344333,0.0,0.736418019777805
1.0000000000000002,0.307057057057057,0.6656656656656657,0.7461848370162374,1.0,0.5869089767514868
0.3247435576682513,0.4879879879879879,0.7117117117117117,0.4928423182238345,0.4940335211120219,0.8191917958735198
0.4218163622717039,0.7987987987987987,0.7842842842842842,0.0,0.4492735929678916,0.3173919109824372
0.4961220915686766,0.5012512512512511,0.7582582582582582,0.5011284162059403,0.4949177668870014,0.4998779147845196
0.2221666249687266,0.4837337337337336,0.6864364364364364,0.3945183738249298,0.9264436576730556,0.6138758567766015
0.67575681761321,0.5392892892892892,0.6198698698698698,0.7086436332560127,0.0,0.6066571323926958
0.1055791843882913,0.5965965965965965,0.8938938938938938,0.3264715628651656,0.6138444634354779,0.6489282662155327
0.5028771578684015,0.0027527527527527,0.8946446446446445,1.0,1.0,0.6202382405776374
0.4961220915686766,0.5012512512512511,0.7585085085085085,0.5010987669393236,0.4949038142909465,0.4998011755062176
1.0000000000000002,0.9667167167167166,0.0,7.67392783019849e-05,1.0,0.0908627936585451
0.5293970477858395,0.0,0.8966466466466466,0.0131555540052671,0.0,0.1494166070774543
0.500375281461096,0.5240240240240239,0.7109609609609608,0.2188080994820098,1.0,0.3968083436524408
0.4961220915686766,0.5010010010010009,0.7580080080080079,0.5011912028881874,0.4948427716832063,0.4998011755062176
0.5103827870903179,0.5673173173173173,0.6368868868868869,0.5033730400962729,0.488370511188238,0.993330659085756
0.4205654240680511,0.2692692692692692,0.5963463463463463,0.5170151908889548,0.0,0.4301062141374679
0.4958719039279461,0.5010010010010009,0.7587587587587588,0.501220852154804,0.4949038142909465,0.4998011755062176
0.5636727545659246,0.5558058058058057,0.7507507507507507,0.5020754486631669,0.4945829045816837,0.448708512827668
0.4996247185389043,0.6976976976976976,0.6596596596596596,1.0,0.5505886251460662,0.6703856148734674
0.7097823367525646,0.4059059059059058,0.6101101101101101,0.2164884803878822,1.0,0.3093639360273471
0.6352264198148613,0.4809809809809809,0.6554054054054054,0.5011598095470639,0.5010830702687619,0.0016324537384236
0.7117838378784089,0.0643143143143142,0.8856356356356356,1.0,1.0,1.0
0.6825118839129348,0.1286286286286285,0.7424924924924925,1.0,1.0,0.8997226921534087
1.0000000000000002,0.1504004004004003,0.984234234234234,1.0,0.0,0.0
0.4961220915686766,0.5007507507507507,0.7585085085085085,0.5011912028881874,0.4948881176203847,0.4998325688473412
0.5206404803602703,0.5410410410410409,0.5553053053053053,0.0,0.5401817325636151,0.3673701100511014
0.9754816112084064,0.7272272272272271,0.6486486486486486,0.7062629715541447,0.2133892599891867,0.635347158030591
0.6369777332999751,0.6193693693693693,0.555055055055055,0.5031585189319288,0.5019690601182483,1.0
0.550162621966475,0.5362862862862862,0.5993493493493494,0.5008545965083628,0.4960636238380103,0.1157367842754242
0.4563422566925195,0.2212212212212211,0.6769269269269269,0.5196557196923453,0.41264802832377,0.4856392905104906
0.3832874655991995,0.5405405405405405,0.7680180180180181,0.5238990529675428,0.4912552104225892,0.6854160489736121
0.3992994746059546,0.5127627627627627,0.6373873873873874,0.5041822906674573,0.4945218619739435,0.0317875019620838
0.4618463847885916,0.4982482482482481,0.7532532532532532,0.4240629959711879,1.0,0.3460662399497707
0.4963722792094072,0.5012512512512511,0.7587587587587588,0.5011755062176256,0.4948567242792612,0.4998325688473412
0.4330748061045785,0.7197197197197196,0.7027027027027026,1.0,0.6024137991174983,0.655642953066955
0.0943207405554166,0.5775775775775774,0.8363363363363363,0.3016429181854649,0.5417688403648604,0.610699897099604
0.936452339254441,0.0,0.4074074074074074,0.0,0.0,0.0
0.2444333249937454,0.2922922922922922,0.6719219219219219,0.3774874862654133,0.0,0.3400073251129288
0.4746059544658495,0.1911911911911911,0.8285785785785785,0.9043305370005406,0.4185848579451314,0.5560057205643825
0.2937202902176633,0.4709709709709709,0.6759259259259258,0.2438495212515478,1.0,0.484221357936411
1.0000000000000002,0.8493493493493491,0.0,0.34588311212655,1.0,0.0
0.4963722792094072,0.5015015015015014,0.7582582582582582,0.5010987669393236,0.4949038142909465,0.4998011755062176
0.4863647735801852,0.1644144144144143,0.6223723723723723,0.420308003557912,0.4820691699949422,0.43975094616042
0.7570678008506382,0.5888388388388387,0.6814314314314314,0.6019568515967002,0.274309782513909,0.6204056717302964
0.4593445083812861,0.7349849849849849,0.5187687687687688,1.0,0.4248112039346321,0.763581980222195
0.6737553164873656,0.4064064064064063,0.5392892892892893,0.3849800303468964,1.0,0.3981198876816018
0.4958719039279461,0.5012512512512511,0.7585085085085085,0.5011144636098854,0.4948567242792612,0.4998622181139578
1.0000000000000002,0.7592592592592591,0.0,0.999222142769939,0.983762666341106,0.9927062804122992
0.1776332249186891,0.5425425425425424,0.7274774774774775,0.2901965571969235,0.0,0.4580183825453023
0.4961220915686766,0.5012512512512511,0.7585085085085085,0.5011598095470639,0.4948881176203847,0.4998325688473412
0.7750813109832375,0.6146146146146145,0.5908408408408408,0.7966060310096448,0.0,0.6052531524146711
0.4635976982737054,0.627127127127127,0.6038538538538538,0.4919423757782932,0.4968711303346879,1.0
0.923692769577183,0.6001001001001001,0.0,0.5511833545529065,1.0,0.1794199208190173
0.5764323242431826,0.5390390390390389,0.6411411411411411,0.5009470324572266,0.4983222003243978,1.0
0.7072804603452592,0.5175175175175174,0.6478978978978979,0.7329385911366133,0.0,0.5751591467987512
1.0000000000000002,0.0,1.0,0.2283917888972217,0.0841167134659992,0.0
0.399049286965224,0.5182682682682682,0.6564064064064064,0.500228473760399,0.4952840225334426,0.0031899122730523
0.8981736302226672,0.7685185185185184,1.0,0.155337740028254,0.9483579538517886,0.6449604967124195
0.5298974230673006,0.7827827827827827,0.7910410410410409,0.0,0.4000436018626715,0.5016638470795473
0.4881160870652991,0.3385885885885885,0.7314814814814814,1.0,0.5223102010917906,0.5105446744684933
0.7905929447085316,0.5578078078078077,0.5272772772772772,0.4524931545075605,0.9766206812355024,0.5970263529657986
0.4728546409807357,0.6073573573573573,0.6008508508508508,1.0,0.2449343355948166,0.5710082494724175
0.5283962972229174,0.4181681681681681,0.7542542542542542,0.890749428815599,1.0,0.3904599124474597
0.4893670252689518,0.8045545545545545,0.7617617617617617,0.0,0.5655440640424159,0.5234560580427996
0.5186389792344259,0.6311311311311311,0.6744244244244244,0.0,0.5197935015783874,0.4563388387951933
0.4733550162621968,0.2194694694694693,0.6596596596596596,0.9938050473516228,0.5884350419449919,0.5797669916458831
0.4938704028021017,0.2257257257257257,0.7272272272272272,0.8696286865374889,0.5269354866839911,0.569360099063432
0.4963722792094072,0.5012512512512511,0.7582582582582582,0.5011284162059403,0.4949038142909465,0.4997854788356559
0.4836127095321492,0.6326326326326326,0.6173673673673673,1.0,0.4972373859811291,0.6745818581369796
0.1391043282461846,0.5132632632632632,0.7189689689689689,0.3235711669602525,0.4759038666131817,0.4073687147914959
1.0000000000000002,0.5295295295295295,0.1308808808808809,0.940971798315224,1.0,0.5630570137956293
0.503127345509132,0.4474474474474473,0.6243743743743744,0.4974065612082948,0.5057223084570173,0.0
0.829622216662497,0.4914914914914914,0.0743243243243244,0.302023126427961,0.0,0.0
0.3910432824618465,0.6644144144144143,0.5880880880880881,0.491270907093151,0.501374330711408,1.0
0.4961220915686766,0.5012512512512511,0.7582582582582582,0.5011755062176256,0.4949038142909465,0.4998011755062176
0.641981486114586,0.3956456456456456,0.6236236236236236,0.2860003139334112,1.0,0.2057589340216614
0.9647235426569928,0.1911911911911911,0.8178178178178177,0.8382981320962031,1.0,0.8771665765561505
0.4961220915686766,0.5010010010010009,0.7585085085085085,0.5011755062176256,0.4948270750126445,0.4997558295690392
0.4961220915686766,0.5015015015015014,0.7582582582582582,0.5011284162059403,0.494872420949823,0.4997854788356559
0.6039529647235428,0.1789289289289288,1.0,1.0,0.6988314700804018,0.6146223206655388
0.7020265198899176,0.4577077077077076,1.0,0.103116661143764,0.0,0.0577620035927934
0.4963722792094072,0.5010010010010009,0.7585085085085085,0.5012365488253658,0.4948881176203847,0.4997261803024225
0.4640980735551665,0.5563063063063062,0.5975975975975976,0.4995430524792019,0.5103615466452727,0.0
0.8306229672254193,0.587087087087087,0.6473973973973973,0.7064164501107487,0.0016481504089854,0.5533669358354989
0.4893670252689518,0.11011011011011,0.5067567567567567,0.7050578160699025,0.4978792053996547,0.583521984059159
0.5123842882161622,0.4149149149149148,0.7089589589589589,0.341060746115074,1.0,0.2085058513699705
0.4961220915686766,0.5010010010010009,0.7585085085085085,0.501220852154804,0.494872420949823,0.4998011755062176
0.4846134600950714,0.4414414414414414,0.7204704704704704,0.9531803198632643,0.0,0.61851335089035
0.4553415061295973,0.4446946946946946,0.575075075075075,0.5018766241693845,0.4971920400439507,0.0
0.3982987240430324,0.5412912912912912,0.7027027027027026,0.5033869926923278,0.4940021277708983,0.0378778101400492
0.7217913435076309,0.5265265265265264,0.617117117117117,0.8828138898093727,0.0,0.5015103685229433
0.2682011508631474,0.4504504504504503,0.7284784784784785,0.2513577620035928,1.0,0.5198545441861276
0.4973730297723294,0.3105605605605605,0.6081081081081081,0.3632035160542058,1.0,0.2441861276313724
1.0000000000000002,0.1148648648648648,1.0,1.0,0.4266110888257146,0.0
1.0000000000000002,0.583083083083083,0.4997497497497497,0.2177389818093029,1.0,0.2013952596054903
0.5006254691018265,0.7224724724724724,0.5948448448448448,0.3571759945584875,0.4159739784083576,0.4775816662887838
0.4645984488366276,0.8283283283283283,0.6143643643643644,1.0,0.4105272337234246,0.5403805570573975
0.5126344758568928,0.4924924924924924,0.5012512512512513,0.4974205138043497,0.4951165913807838,0.0362750056682421
0.4961220915686766,0.5010010010010009,0.7585085085085085,0.5012505014214207,0.4949177668870014,0.4998168721767794
0.6379784838628973,0.1624124124124123,0.6694194194194194,0.8444023928702233,0.4319828383068524,0.4765910319688857
0.67575681761321,0.4064064064064063,0.6694194194194194,0.360746115074036,1.0,0.2480318119190052
0.536902677007756,0.5315315315315314,0.6361361361361361,0.4991454034916371,0.495482847027225,0.1808395974676038
0.4961220915686766,0.5012512512512511,0.7582582582582582,0.5012051554842423,0.4949177668870014,0.4998325688473412
0.4776082061546161,0.669169169169169,0.7097097097097096,1.0,0.5958055008109946,0.6781833719936516
0.5283962972229174,0.7102102102102101,0.6816816816816816,0.1615501334216998,0.4891501124928057,0.5341995570050753
0.3645233925444084,0.5768268268268267,0.7234734734734735,0.4819313881089,0.4942619948724209,0.9933917016934964
0.4961220915686766,0.5010010010010009,0.7587587587587588,0.5011755062176256,0.4948567242792612,0.4998011755062176
0.4791093319989993,0.2234734734734734,0.6519019019019019,0.5270575718994716,0.4689746585974153,0.4637563876728814
0.5291468601451089,0.847097097097097,0.7269769769769769,0.0,0.5849556133038003,0.4567818337199365
0.4916187140355267,0.512012012012012,0.752002002002002,0.5044561103650348,0.4841289219875473,0.5130631180564034
0.4961220915686766,0.5012512512512511,0.7582582582582582,0.5011912028881874,0.4949177668870014,0.4997854788356559
0.4756067050287717,0.0157657657657657,0.8818818818818818,1.0,1.0,0.9336623820569614
0.5063797848386291,0.3298298298298298,0.8003003003003002,0.9445890088424578,0.5065629523693252,0.4430315503078291
0.4533400050037529,0.7407407407407406,0.6794294294294294,1.0,0.5472016324537384,0.5305213038701013
0.4961220915686766,0.5012512512512511,0.7585085085085085,0.5011755062176256,0.494872420949823,0.4998011755062176
0.6487365524143109,0.5685685685685685,0.5625625625625625,0.4988087971118126,0.4968257843975094,0.9999843033294382
0.4858643982987242,0.8350850850850849,0.6859359359359358,0.0,0.3579852451296719,0.4449709611594607
0.1050788091068302,0.6433933933933933,0.8075575575575575,0.471827964490643,0.8030922441006679,0.4851352529780072
0.6452339254440832,0.4789789789789789,0.6821821821821821,0.1986169489160577,1.0,0.2895704344489597
0.3262446835126346,0.5252752752752752,0.7447447447447447,0.3063118056403369,1.0,0.4639848614332804
0.4856142106579936,0.8238238238238237,0.7154654654654654,0.0,0.3827685438721942,0.5381969757748051
0.4963722792094072,0.5012512512512511,0.7585085085085085,0.501374330711408,0.494795681671521,0.4998482655179029
0.5544158118588943,0.338088088088088,0.5793293293293293,0.0,0.6592758602647505,0.3893594014336292
0.5891918939204405,0.573073073073073,0.6779279279279279,0.5001674311526588,0.4942776915429827,0.8498351849591015
0.5021265949462098,0.628128128128128,0.494994994994995,0.5040445087814152,0.4909343007133265,1.0
0.5028771578684015,0.2092092092092091,0.6929429429429429,0.5253169855416223,0.5019080175105081,0.5311317299475034
0.5171378533900427,0.1348848848848848,0.6461461461461461,0.5438582416240821,0.4540349163716274,0.522203812546872
0.3680260195146361,0.5105105105105104,0.6801801801801801,0.50198475678881,0.4945375586445052,0.0882833074628948
0.9874906179634728,0.5675675675675674,0.0,0.3725744283795804,0.9311892844062296,0.0
0.4045534150612961,0.5192692692692692,0.6974474474474475,0.2109475556795786,1.0,0.4284284144618658
0.7475606705028773,0.412162162162162,0.069069069069069,0.3503845684287633,0.0,0.0
0.4806104578433827,0.4274274274274273,0.6468968968968969,1.0,0.607328601077838,0.5346408078553115
0.5083812859644735,0.6819319319319318,0.5973473473473473,1.0,0.5517641313636918,0.597301916737883
0.4963722792094072,0.5012512512512511,0.7585085085085085,0.5011144636098854,0.4949038142909465,0.4997854788356559
0.5694270703027272,0.8666166166166165,0.5988488488488488,0.9648394579416432,0.3402357988733279,0.4588415857125416
0.4963722792094072,0.5012512512512511,0.7582582582582582,0.5012051554842423,0.4949038142909465,0.4998482655179029
0.8358769076807608,0.6403903903903903,0.6076076076076076,0.7754085494532326,0.2444599473289498,0.5973315660044998
0.4966224668501377,0.5012512512512511,0.7585085085085085,0.5011755062176256,0.4949038142909465,0.4997715262396009
0.8468851638729049,0.6594094094094093,0.5625625625625625,0.5521914296178733,0.4705321171320439,0.4880356488829203
0.4961220915686766,0.5012512512512511,0.7585085085085085,0.5011912028881874,0.4948567242792612,0.4997558295690392
0.581686264698524,0.1699199199199198,0.3946446446446446,0.0027015714111306,0.5406700734255367,0.4662887838568463
1.0000000000000002,0.0,1.0,0.1641435722134049,0.0,0.0
0.5741806354766076,0.5603103103103102,0.6566566566566566,0.5014964159268884,0.4926138444634355,0.9943997767584632
0.6272204153114838,0.551051051051051,0.536036036036036,0.4998168721767794,0.501602804471807,1.0
0.0695521641230924,0.5365365365365364,0.7312312312312312,0.435310532465947,0.5895495055548773,0.5980344280307655
0.4508381285964474,0.3838838838838838,0.7597597597597596,1.0,0.5402113818302318,0.5697560039764898
0.7570678008506382,0.3806306306306306,0.3866366366366366,0.0,0.0089889600083715,0.0
0.8436327245434077,0.1859359359359358,1.0,0.0745940666585276,0.128234822191604,0.0
0.461596197147861,0.7962962962962962,0.6416416416416416,0.3559708390742452,0.5122085215480405,0.5223102010917906
0.7398048536402303,0.1866866866866866,1.0,0.0,0.4053525646615623,0.0
0.4130597948461347,0.5665665665665665,0.7114614614614614,0.501297591433106,0.4916371627395922,0.1136613356122573
0.4961220915686766,0.5012512512512511,0.7582582582582582,0.5011598095470639,0.494872420949823,0.4998168721767794
0.6539904928696524,0.378128128128128,0.6148648648648648,0.5105446744684933,1.0,0.3415176936358721
0.498123592694521,0.1881881881881881,0.7147147147147146,1.0,0.5916249542180442,0.6976559638627762
0.5936952714535904,0.4449449449449448,0.6033533533533533,0.5,0.4970699548284703,0.0
0.3610207655741807,0.5548048048048047,0.6701701701701701,0.5687950189232084,0.4895617140764253,0.8335682020335908
0.4961220915686766,0.5012512512512511,0.7585085085085085,0.5012365488253658,0.4948427716832063,0.4997854788356559
0.4015511633725295,0.5185185185185184,0.6088588588588588,0.50550953136718,0.4941852555941189,0.0
0.6329747310482864,0.4426926926926926,0.5740740740740741,0.5016638470795473,0.4935294835795385,0.0
0.4696022016512385,0.7432432432432431,0.5930930930930931,1.0,0.3538186511327764,0.600598217555854
0.4558418814110584,0.5965965965965965,0.537037037037037,0.5078744963984861,0.4882484259727576,0.0
1.0000000000000002,0.0603103103103102,0.2239739739739739,1.0,1.0,0.555121474789403
0.4640980735551665,0.2312312312312311,0.7364864864864864,0.9747580096621729,0.3901843486753754,0.4383923121195737
0.406805103827871,0.5265265265265264,0.6776776776776776,0.441277011353925,0.4852276889268709,0.976331164867363
0.0815611708781586,0.5195195195195195,0.8518518518518519,0.3818825540227079,0.7147775432966497,0.4874862654132584
1.0000000000000002,0.0,1.0,0.5665817883739993,0.0079965816139665,0.0
0.4961220915686766,0.5007507507507507,0.7582582582582582,0.5011912028881874,0.4949038142909465,0.4998168721767794
0.5769326995246437,0.5675675675675674,0.5515515515515516,0.4985506740847969,0.4946439471894239,0.9999546540628216
0.5013760320240181,0.3966466466466465,0.7052052052052051,0.934532675235886,0.0,0.3444791321485254
0.4961220915686766,0.5010010010010009,0.7582582582582582,0.5011755062176256,0.4949038142909465,0.4998936114550814
0.9902426820115088,0.4917417417417417,1.0,0.9315712367232328,0.0,0.0
0.4963722792094072,0.5010010010010009,0.7582582582582582,0.5011441128765021,0.4949038142909465,0.4998325688473412
1.0000000000000002,0.0267767767767767,0.5763263263263263,0.3451192074925441,0.0,0.0
0.4868651488616464,0.6734234234234233,0.7242242242242242,1.0,0.4558051519960933,0.7041107836126759
1.0000000000000002,0.0,0.9744744744744744,0.9172105272337234,0.5037392957427141,0.0010220276610217
0.2474355766825119,0.4532032032032031,0.6136136136136136,0.1573068001465022,1.0,0.5116294888117621
0.4961220915686766,0.5012512512512511,0.7585085085085085,0.5011755062176256,0.4948567242792612,0.4998482655179029
0.5439079309482113,0.4159159159159158,0.5943443443443444,0.2838638226625041,1.0,0.3424036834853585
1.0000000000000002,0.4474474474474473,0.585085085085085,0.4974815564120899,1.0,0.6261907668695607
0.993495121341006,0.0,0.9181681681681682,1.0,1.0,0.910954531977606
0.3595196397297974,0.599099099099099,0.771021021021021,0.501602804471807,0.4937422606693758,0.6164849922388684
0.4961220915686766,0.5012512512512511,0.7582582582582582,0.5011755062176256,0.4948881176203847,0.4997558295690392
0.4961220915686766,0.5010010010010009,0.7582582582582582,0.5012051554842423,0.4948427716832063,0.4997854788356559
0.5864398298724044,0.4694694694694694,0.5633133133133132,0.4992674887071175,0.4979402480073949,0.0004116015836196
1.0000000000000002,0.5915915915915915,0.0,0.7711355669114185,0.994261994872421,0.0
0.5339004253189894,0.5803303303303302,0.7510010010010009,0.4997104836318607,0.4944608193662033,0.5032509548807925
0.5308981736302228,0.317067067067067,0.7279779779779779,1.0,0.5865270244344838,0.4242914697315869
0.7102827120340257,0.2007007007007006,0.2965465465465465,0.1000645307567539,0.0,0.0
0.4961220915686766,0.5012512512512511,0.7585085085085085,0.5011912028881874,0.4949177668870014,0.4997401328984774
0.4961220915686766,0.5012512512512511,0.7585085085085085,0.5012051554842423,0.4949177668870014,0.4997854788356559
0.4961220915686766,0.5010010010010009,0.7585085085085085,0.501220852154804,0.4948270750126445,0.4997854788356559
0.8361270953214912,0.0,1.0,0.9988558871234978,1.0,0.7201510368522943
0.5461596197147862,0.5287787787787787,0.6186186186186186,0.5032963008179709,0.4899436663934283,0.0273784816087342
0.7678258694020517,0.2097097097097096,0.1791791791791792,0.0542668782810402,0.0,0.0
0.49311983987991,0.4281781781781781,0.7127127127127126,0.3216335001831278,1.0,0.281040166035893
0.5076307230422819,0.1421421421421421,0.6706706706706707,0.5945706960601357,0.3674921952665818,0.5543436175593421
0.4958719039279461,0.5012512512512511,0.7585085085085085,0.5011441128765021,0.4949038142909465,0.4997854788356559
1.0000000000000002,0.6939439439439439,0.0,0.1676543941957201,1.0,0.9432146781310498
0.1290968226169627,0.5908408408408408,0.7424924924924925,0.4386521792210963,0.8661946038334758,0.5396480457645151
0.3817863397548162,0.4889889889889889,0.7387387387387387,0.4990843608838969,0.4956049322427054,0.3917871531471825
0.4963722792094072,0.5012512512512511,0.7585085085085085,0.5010063309904599,0.494872420949823,0.4997854788356559
0.8593945459094323,0.4064064064064063,0.1521521521521521,0.3182918534279784,0.0,0.0
0.8453840380285216,0.076076076076076,1.0,0.8276156757416677,0.0182063937771422,0.0558836353489021
0.3367525644233176,0.5873373373373372,0.6996996996996997,0.4649005005493835,0.4898826237856881,0.996183964978984
0.3875406554916188,0.5660660660660659,0.7162162162162162,0.5012051554842423,0.4950851980396603,0.0504665399305858
0.4961220915686766,0.5012512512512511,0.7585085085085085,0.5011441128765021,0.4948567242792612,0.4998168721767794
0.6122091568676509,0.4752252252252251,0.632132132132132,0.497390864537733,0.4958177093325427,0.0074925440814831
0.4871153365023769,0.3953953953953953,0.7535035035035034,1.0,0.488051345553482,0.5599891867380574
0.5251438578934202,0.5768268268268267,0.5685685685685685,0.5011912028881874,0.4963827894727662,1.0
1.0000000000000002,0.3936436436436435,0.4742242242242242,0.0,1.0,0.6031620070809425
0.5701776332249189,0.5675675675675674,0.5790790790790791,0.5039991628442367,0.4947206864677259,0.9963827894727664
0.4958719039279461,0.5010010010010009,0.7585085085085085,0.5011755062176256,0.4949038142909465,0.4997558295690392
0.3672754565924444,0.4759759759759759,0.6786786786786786,0.5010534210021452,0.4934230950346199,0.8174215602490538
0.7498123592694522,0.5833333333333333,0.5472972972972973,0.386537488881525,0.9528594101540018,0.4117166925371052
0.3750312734550914,0.4654654654654653,0.7429929929929929,0.501602804471807,0.4942916441390376,0.634278040357884
1.0000000000000002,0.4009009009009008,0.5107607607607607,0.2855869682752847,1.0,0.3518809843556516
0.4936202151613711,0.6974474474474474,0.6118618618618619,0.2598880304166594,0.4045904041020632,0.5257599804663655
0.961471103327496,0.804054054054054,0.0,0.9994663132009,0.3871322182883653,0.1392835341925807
0.6775081310983239,0.4842342342342342,0.6874374374374375,0.7725395468894432,0.0,0.6857073094162582
0.4961220915686766,0.5012512512512511,0.7585085085085085,0.5011755062176256,0.4948881176203847,0.4997104836318607
0.5594195646735053,0.5487987987987987,0.6586586586586586,0.4993442279854195,0.4937422606693758,0.1237944084971309
0.4420815611708782,0.3986486486486486,0.7104604604604604,0.7596909499973838,0.0,0.4010202835865148
0.3019764823617714,0.5795795795795795,0.8566066066066065,0.0,0.0,0.9882030800355792
0.6382286715036278,0.346096096096096,0.6056056056056056,0.3581980222195092,1.0,0.2349843905331636
0.8613960470352766,0.3123123123123122,0.1216216216216216,0.0,0.0,0.0
0.9954966224668504,0.3843843843843843,0.0037537537537538,0.999007621605595,0.0084238798681479,0.4900204056717303
0.5364023017262949,0.8105605605605604,0.7304804804804804,0.4459929888204824,0.4326386103214329,0.5286132863595933
0.6897673254941208,0.5145145145145145,0.6078578578578578,0.371459964769695,1.0,0.2281162251251374
0.4520890668001002,0.543043043043043,0.562062062062062,0.5033573434257111,0.5010830702687619,0.0
0.9737302977232928,0.0,0.2194694694694694,0.3143694298620437,0.0,0.0
0.4881160870652991,0.3095595595595595,0.5678178178178178,1.0,0.513628198196627,0.6759858381150042
0.8786589942456844,0.6751751751751751,0.5763263263263263,0.6749638104539826,0.2632471179168774,0.5710692920801577
0.4060545409056794,0.5525525525525524,0.6088588588588588,0.5020754486631669,0.4962467516612309,0.0
0.5349011758819116,0.3943943943943943,0.6303803803803804,0.3387254303503846,1.0,0.3008790135514589
0.3827870903177384,0.325075075075075,0.6664164164164164,0.5560824598426845,0.0,0.3821581177947922
0.1190893169877408,0.6443943943943943,0.8113113113113113,0.3454244205312451,0.842982716221637,0.5743045502903884
0.4961220915686766,0.5007507507507507,0.7582582582582582,0.5011598095470639,0.4948567242792612,0.4998011755062176
0.4323242431823869,0.6306306306306305,0.6879379379379379,0.0,0.5513054397683869,0.4120079529797513
0.1691268451338505,0.3956456456456456,0.6456456456456456,0.1477684566684688,0.0,0.4156234194324781
1.0000000000000002,0.0242742742742742,0.7675175175175175,0.9482201719657464,1.0,0.9304567731133474
0.3800350262697024,0.4729729729729729,0.7364864864864864,0.5020911453337287,0.4929190575021365,0.7522437518530791
0.845133850387791,0.0973473473473472,1.0,0.8347890541883949,0.9759806058914836,0.5232118876118388
0.4963722792094072,0.5012512512512511,0.7585085085085085,0.5011441128765021,0.4948881176203847,0.4998936114550814
0.4961220915686766,0.5012512512512511,0.7585085085085085,0.501297591433106,0.4948881176203847,0.4998011755062176
0.7830873154866151,0.5853353353353352,0.6401401401401401,0.7378987390341315,0.1678671712855573,0.4734761148996285
0.3880410307730799,0.5808308308308308,0.694944944944945,0.4988087971118126,0.4963060501944643,0.9967961351308928
0.4886164623467602,0.4574574574574573,0.7427427427427427,1.0,0.6214433960618797,0.6937335402968414
0.4961220915686766,0.5012512512512511,0.7585085085085085,0.5011284162059403,0.4948427716832063,0.4997558295690392
0.5078809106830124,0.355105105105105,0.6388888888888888,0.5733575178331618,0.404224148455622,0.5853375656208033
0.4961220915686766,0.5010010010010009,0.7587587587587588,0.5011598095470639,0.4949334635575632,0.4997854788356559
0.4961220915686766,0.5012512512512511,0.7585085085085085,0.5011441128765021,0.494872420949823,0.4998168721767794
0.5789342006504881,0.5452952952952952,0.7119619619619619,0.5008092505711844,0.4938189999476777,0.8909622059054363
0.5391543657743308,0.4672172172172171,0.5217717717717717,0.0,0.8015958281737796,0.5664753998290807
0.469352014010508,0.4371871871871871,0.6406406406406406,0.953530878839144,0.0,0.5988122852608263
0.4963722792094072,0.5015015015015014,0.7587587587587588,0.5011144636098854,0.4949177668870014,0.4998011755062176
0.4070552914686016,0.5097597597597596,0.5375375375375375,0.503448035300068,0.4906308317491323,0.006744336118039
0.4866149612209158,0.4674674674674673,0.6691691691691691,0.3253867485218968,1.0,0.3424176360814134
0.2962221666249688,0.3025525525525525,0.6456456456456456,0.4556987634511746,0.0,0.3367424176360814
0.4165624218163624,0.4229229229229228,0.7427427427427427,1.0,0.6202242879815826,0.7769799605839162
0.4998749061796348,0.7442442442442441,0.7637637637637638,0.3107679160053718,0.5929225456511502,0.5503305021190505
0.4961220915686766,0.5012512512512511,0.7585085085085085,0.5011755062176256,0.494872420949823,0.4998168721767794
0.4595946960220166,0.59009009009009,0.6136136136136136,0.4972234333850742,0.4934527443012365,1.0
0.2649487115336503,0.4189189189189188,0.7502502502502502,0.281116905314195,0.0,0.4070164117411096
0.9489617212909685,0.0277777777777777,0.7169669669669669,0.91066327153496,0.9418263948235868,0.3209620314979856
0.338754065549162,0.4827327327327326,0.7084584584584583,0.3010917906412962,1.0,0.4937283080733209
0.4243182386790093,0.2237237237237236,0.2257257257257257,0.0,0.7115893750981042,0.3875281232014231
0.5389041781336004,0.3288288288288287,0.6801801801801801,1.0,0.6783368505502555,0.6655022062542512
1.0000000000000002,0.1491491491491491,0.9624624624624624,0.8805553133229851,0.0,0.0
0.5964473355016264,0.4504504504504503,0.3508508508508509,0.0,0.4025603013760748,0.5652841969408933
0.8781586189642233,0.7202202202202201,0.5698198198198198,0.6434954741266546,0.2237211573678427,0.5198998901233061
0.2519389542156618,0.4919919919919919,0.6686686686686687,0.3678113609013377,1.0,0.5599752341420026
0.5844383287465601,0.5152652652652652,0.6814314314314314,0.5021975338786473,0.4941556063275023,0.7494043985559062
0.5416562421816363,0.2179679679679679,0.7064564564564564,0.5738615553656452,0.5435076826482027,0.5114446169140345
0.4153114836127096,0.5287787787787787,0.7537537537537538,0.5032509548807925,0.4952090273296475,0.2493137066815494
0.4731048286214662,0.5893393393393392,0.4817317317317317,0.0,0.6142107190819192,0.5658806704222404
0.4961220915686766,0.5007507507507507,0.7582582582582582,0.5011755062176256,0.4948881176203847,0.4997558295690392
0.6162121591193397,0.4687187187187186,0.7047047047047046,0.2431640999703507,1.0,0.0138409752864642
1.0000000000000002,0.5728228228228227,0.3488488488488488,0.0790501770235624,1.0,0.0
0.4991243432574432,0.7555055055055053,0.6736736736736736,0.735563423269442,0.4655266232973473,0.5156565568481085
0.4681010758068553,0.4877377377377376,0.6596596596596596,0.5014964159268884,0.4900797042049636,0.9844184383556864
0.4963722792094072,0.5012512512512511,0.7582582582582582,0.5011912028881874,0.4948881176203847,0.4998011755062176
0.5744308231173382,0.5545545545545545,0.5993493493493494,0.4995570050752568,0.495254373266826,0.9733086837469695
0.4896172129096824,0.7279779779779778,0.6103603603603603,0.2839702112074228,0.4702879467010831,0.5354971484381813
0.5386539904928698,0.4504504504504503,0.6549049049049048,0.8040532291539495,0.0,0.6230618972042485
0.8516387290467853,0.0,1.0,0.98744091947608,0.2030434100144758,0.0025794861956502
1.0000000000000002,0.6894394394394393,0.0,0.3054275598653574,0.7706175767828801,0.0
0.6094570928196148,0.1924424424424424,0.7822822822822822,1.0,1.0,0.6309660428693513
0.4375781836377284,0.4982482482482481,0.586086086086086,0.500381952317003,0.4924917592479551,0.0
0.2494370778083564,0.4411911911911911,0.7004504504504504,0.389451837382493,0.0,0.5454610460958892
0.7115336502376784,0.4532032032032031,0.1031031031031031,0.3287144426809913,0.0,0.0
0.3762822116587442,0.4517017017017016,0.7192192192192192,0.5078431030573626,0.4919266791077314,0.7204091598793101
0.5341506129597199,0.1866866866866866,0.6919419419419419,0.6142560650190976,0.4598496607775084,0.5931510194115492
0.4168126094570929,0.4929929929929929,0.6991991991991992,0.5030067844498317,0.4944608193662033,0.3262727383713832
0.4198148611458595,0.6156156156156155,0.6576576576576576,1.0,0.6106092052252472,0.6750248530617228
0.5764323242431826,0.5372872872872871,0.6398898898898899,0.5004116015836196,0.4943544308212846,1.0
0.5556667500625471,0.4744744744744744,0.7222222222222222,0.4416118736592427,0.2653975617838394,0.5495822941556063
1.0000000000000002,0.0,1.0,0.010651063013412,0.0,0.0
0.4961220915686766,0.5015015015015014,0.7587587587587588,0.501220852154804,0.4949177668870014,0.4998482655179029
0.583937953465099,0.5558058058058057,0.6554054054054054,0.4974972530826517,0.4927812756160943,0.0435390759893262
1.0000000000000002,0.0,0.6876876876876876,0.9290527931353229,0.0,0.0
0.4963722792094072,0.5010010010010009,0.7585085085085085,0.501069117672707,0.4948881176203847,0.4998325688473412
0.4961220915686766,0.5012512512512511,0.7582582582582582,0.5012051554842423,0.4948881176203847,0.4998168721767794
0.5831873905429074,0.2302302302302302,0.6301301301301301,0.8658440448575964,0.4922475888169942,0.4991454034916371
0.4963722792094072,0.5012512512512511,0.7582582582582582,0.5011441128765021,0.4948427716832063,0.4997715262396009
0.4963722792094072,0.5012512512512511,0.7582582582582582,0.5011144636098854,0.4949491602281249,0.4998011755062176
0.7182887165374032,0.3916416416416415,0.3738738738738738,0.7065228386556673,0.0,0.5056769625198388
0.644233174881161,0.5452952952952952,0.7332332332332332,0.5014807192563266,0.4948881176203847,0.684807366970717
0.318238679009257,0.5372872872872871,0.7034534534534533,0.5119643511170797,0.4929033608315747,0.9008825017004728
1.0000000000000002,0.0,0.1801801801801802,0.0,0.0,9.06918743569518e-05
0.5414060545409058,0.4356856856856856,0.6356356356356356,0.2111777735144845,1.0,0.3780525664056368
0.4455841881411059,0.5503003003003002,0.544044044044044,0.5059821755585399,0.4951322880513455,0.0202818424403091
0.5554165624218165,0.5150150150150149,0.6191191191191191,0.5012505014214207,0.4945968571777386,0.1037113905506043
0.7685764323242433,0.0492992992992992,0.9409409409409408,0.953225665800443,1.0,0.9911488218776706
0.4961220915686766,0.5012512512512511,0.7587587587587588,0.5011598095470639,0.4949177668870014,0.4998011755062176
0.4961220915686766,0.5015015015015014,0.7565065065065064,0.5011441128765021,0.4949177668870014,0.4997854788356559
0.4580935701776333,0.394144144144144,0.6586586586586586,1.0,0.6334687897866997,0.6101051676927638
0.4655991993995498,0.4779779779779779,0.7592592592592592,0.4990843608838969,0.4954671503566632,0.5183284789926226
1.0000000000000002,0.2064564564564564,0.6619119119119119,0.6279610024940265,1.0,0.5196243263512217
0.4260695521641232,0.5803303303303302,0.7107107107107107,0.4956502781798838,0.4981390725011772,1.0
0.6614961220915688,0.4784784784784784,0.6173673673673673,0.678915883286534,0.0,0.4723023527565098
0.5709281961471104,0.577077077077077,0.6744244244244244,0.5025637895250885,0.4944747719622582,0.2752114690339571
0.4573430072554417,0.4011511511511511,0.6801801801801801,0.846722011964351,0.0,0.5656208033207178
0.670252689517138,0.5037537537537536,0.612112112112112,0.5018016289655894,0.4943073408095993,0.0438896349652057
1.0000000000000002,0.601101101101101,0.2625125125125125,0.22591869124649,1.0,0.3865671381481417
0.4963722792094072,0.5012512512512511,0.7585085085085085,0.501220852154804,0.4949631128241799,0.4998325688473412
0.6554916187140357,0.5090090090090089,0.6381381381381381,0.9514711268465388,0.0,0.5523449081744772
0.4961220915686766,0.5010010010010009,0.7585085085085085,0.5011598095470639,0.494872420949823,0.4997558295690392
0.4963722792094072,0.5010010010010009,0.7585085085085085,0.5011912028881874,0.4948881176203847,0.4998168721767794
0.4218163622717039,0.5282782782782782,0.5933433433433433,0.4990390149467185,0.4990529675427734,0.0
0.4635976982737054,0.3128128128128127,0.7169669669669669,0.3663620349861346,1.0,0.2419432478155467
0.5166374781085816,0.1711711711711711,0.4954954954954955,0.3777926993041143,0.3926103563144217,0.4400404625285592
0.5419064298223669,0.2464964964964964,0.5367867867867867,0.0,0.3428763276767184,0.4220485899157612
0.495371528646485,0.2017017017017016,0.6914414414414414,0.6294399776758464,0.4784973054048869,0.4795507264070321
0.4961220915686766,0.5015015015015014,0.7585085085085085,0.5012505014214207,0.4948427716832063,0.4998325688473412
0.4961220915686766,0.5010010010010009,0.7585085085085085,0.5012051554842423,0.4948881176203847,0.4997854788356559
0.4961220915686766,0.5007507507507507,0.7585085085085085,0.5011755062176256,0.4949038142909465,0.4998325688473412
0.4701025769326996,0.1941941941941941,0.3315815815815816,0.0332682212184104,0.5370075169611246,0.6501037724331583
0.1295971978984239,0.598098098098098,0.807057057057057,0.4249332891501125,0.7830842213579364,0.4693112649772398
0.756567425569177,0.5195195195195195,0.5848348348348348,0.74046252855922,0.0,0.5254861607687881
0.9814861145859396,0.4009009009009008,0.0513013013013013,0.0,0.2031951444965729,0.0
0.6024518388791595,0.5447947947947946,0.6433933933933933,0.4979088546662713,0.4994802657969548,1.0
0.1786339754816113,0.5402902902902902,0.7947947947947948,0.3477597362959346,0.2745086070076914,0.4553325078047334
0.4638478859144359,0.5357857857857857,0.714964964964965,0.5011755062176256,0.4937283080733209,0.0214713012539895
0.4495871903927947,0.7742742742742741,0.576076076076076,1.0,0.4506461796047927,0.766955020318468
0.4453340005003754,0.3455955955955955,0.6664164164164164,0.7642081029701588,0.0,0.3774421403282348
0.4951213410057544,0.8025525525525524,0.6031031031031031,1.0,0.4560179290859305,0.5712053298916929
0.4671003252439331,0.4717217217217216,0.5728228228228228,0.504365418490678,0.49700891222073,0.0
0.4055541656242183,0.1549049049049048,0.1956956956956956,0.0002755637720843,0.9110609205225246,0.8476673003470708
0.3512634475856894,0.3058058058058057,0.6989489489489489,0.4213614245600572,0.0,0.4697228665608595
0.5426569927445586,0.8255755755755755,0.7087087087087086,0.0,0.6361860578683921,0.4737516786717128
0.7260445334000503,0.5102602602602602,0.0,0.0132758951462407,0.3931911331252071,0.0
1.0000000000000002,0.3628628628628628,0.5963463463463463,0.5583567329996337,1.0,0.5145281406421682
0.4961220915686766,0.5010010010010009,0.7585085085085085,0.5011598095470639,0.4949038142909465,0.4998011755062176
0.4555916937703279,0.9269269269269268,0.8078078078078077,0.0,0.5015871078012453,0.4737202853305893
0.4831123342506881,0.4109109109109108,0.6466466466466466,0.9994506165303382,0.0,0.3963810453982594
1.0000000000000002,0.2117117117117116,0.8918918918918919,0.7804907825662313,0.0,0.0303835219840591
0.6094570928196148,0.547047047047047,0.5638138138138138,0.5022289272197709,0.4938346966182395,1.0
0.7933450087565677,0.5855855855855855,0.6256256256256256,0.666356802762614,0.344738999250048,0.5148176570103075
0.485364023017263,0.5895895895895895,0.6956956956956957,1.0,0.604961891972025,0.6567731133474022
0.4080560420315238,0.4559559559559559,0.6541541541541541,0.7233252524547849,0.0,0.4824354256413834
0.4961220915686766,0.5012512512512511,0.7585085085085085,0.501069117672707,0.4949177668870014,0.4998011755062176
0.393545158869152,0.2620120120120119,0.5950950950950951,0.4953921551528681,0.0,0.2998412892198755
0.4961220915686766,0.5012512512512511,0.7585085085085085,0.5010987669393236,0.4948881176203847,0.4997854788356559
0.5379034275706781,0.554054054054054,0.6924424424424425,0.4995273558086401,0.4944747719622582,0.3148577707239653
0.453840380285214,0.5327827827827827,0.6819319319319319,0.5043950677572946,0.4929033608315747,0.192924289725657
0.4635976982737054,0.4181681681681681,0.6634134134134133,0.948174826028568,0.0,0.5199905819976629
1.0000000000000002,0.4974974974974974,0.0,0.349179412944521,0.6177197969897275,0.0
0.539654741055792,0.7842842842842841,0.6108608608608608,1.0,0.4564609240106737,0.4224601914993808
0.519139354515887,0.5545545545545545,0.6584084084084083,0.5015557144601217,0.4956206289132672,0.3097458883443501
0.5516637478108583,0.4166666666666666,0.6694194194194194,0.9014004918290108,0.0,0.5117515740272425
1.0000000000000002,0.988238238238238,0.0,0.3504299143659417,0.9522036381394212,0.3013220084762021
0.4963722792094072,0.5012512512512511,0.7585085085085085,0.5011441128765021,0.4948881176203847,0.4997854788356559
0.5406554916187142,0.568068068068068,0.7174674674674675,1.0,0.4896837992919057,0.5124369953084396
0.563422566925194,0.1831831831831831,0.7429929929929929,0.61146380173361,0.4494881141322357,0.5379074594066658
0.4928696522391795,0.8458458458458458,0.8255755755755756,0.0,0.5991174982995273,0.4986727593002773
0.5066299724793597,0.2084584584584584,0.7429929929929929,0.6866369011284161,0.3671259396201405,0.4818860421717216
0.524143107330498,0.2222222222222221,0.6686686686686687,0.9889059420618448,0.4628407485567783,0.5917470394335246
0.4963722792094072,0.5007507507507507,0.7585085085085085,0.5010830702687619,0.494872420949823,0.4998168721767794
0.8804103077307983,0.0,0.8478478478478477,1.0,1.0,1.0
0.631473605203903,0.5042542542542542,0.6721721721721721,0.5021207946003453,0.4942776915429827,0.0720302771334391
0.4966224668501377,0.5012512512512511,0.7585085085085085,0.5013586340408462,0.4948113783420828,0.4998325688473412
0.5856892669502128,0.1186186186186186,0.7292292292292292,1.0,1.0,0.7775921307358251
0.4961220915686766,0.5010010010010009,0.7587587587587588,0.5011912028881874,0.4948881176203847,0.4998622181139578
0.4963722792094072,0.5012512512512511,0.7585085085085085,0.5011912028881874,0.4949038142909465,0.4998482655179029
0.7175381536152116,0.0167667667667667,1.0,1.0,0.7323124683886495,0.0080279749550901
0.4961220915686766,0.5010010010010009,0.7585085085085085,0.5011144636098854,0.4948270750126445,0.4998011755062176
0.7670753064798601,0.0908408408408408,1.0,0.7986361337356331,0.990050054938347,0.6727348832342117
1.0000000000000002,0.9977477477477475,1.0,1.0,0.0,1.0
0.5116337252939707,0.5508008008008007,0.6801801801801801,0.5000906918743568,0.4964298794844515,0.2200132549662521
0.5011258443832876,0.3263263263263263,0.6463963963963963,0.3070146676666027,1.0,0.3059141566527722
0.4856142106579936,0.3773773773773773,0.5337837837837838,1.0,0.5954095958979367,0.6523623489195458
0.4480860645484114,0.5435435435435434,0.6191191191191191,0.5015260651935051,0.496321746865026,0.0019533634476864
0.9106830122591946,0.5905905905905905,0.2625125125125125,0.4609327310462703,1.0,0.1884071367528821
0.5361521140855643,0.4154154154154153,0.545045045045045,0.4983675462615763,0.4964298794844515,0.0
1.0000000000000002,0.8533533533533533,0.0588088088088088,0.0,1.0,0.0
0.4170627970978234,0.5212712712712712,0.7254754754754754,0.5042572858712524,0.4959711878891466,0.174016777996756
0.2264198148611459,0.391141141141141,0.6724224224224223,0.102124282749359,1.0,0.6528663864520292
0.5041280960720542,0.7917917917917916,0.6754254254254254,0.7539215515286812,0.4363168634564068,0.5247832987425223
0.4961220915686766,0.5012512512512511,0.7585085085085085,0.5012051554842423,0.4949038142909465,0.4997854788356559
0.0970728046034526,0.6318818818818818,0.7577577577577577,0.5046392381882554,0.7842911209166855,0.5495665974850446
0.6910182636977735,0.4932432432432431,0.6146146146146145,0.8130561417583759,0.0,0.4213160786228788
0.4961220915686766,0.5010010010010009,0.7585085085085085,0.5012505014214207,0.4948567242792612,0.4998325688473412
0.4861145859394547,0.3966466466466465,0.6456456456456456,0.6298690200045346,0.0,0.446176116643703
1.0000000000000002,0.862112112112112,1.0,0.8345902296946126,0.0,0.3824319374923697
0.4961220915686766,0.5012512512512511,0.7582582582582582,0.5011598095470639,0.494872420949823,0.4998168721767794
0.4961220915686766,0.5012512512512511,0.7582582582582582,0.5012051554842423,0.4949177668870014,0.4998011755062176
0.8058543907930951,0.6413913913913912,0.544044044044044,0.4133962362872142,0.7574480701815581,0.5099202957950364
1.0000000000000002,0.4391891891891891,1.0,0.0,1.0,0.7126567486963042
0.4863647735801852,0.935185185185185,0.8993993993993994,0.0,0.4664265657428885,0.4200952264680747
0.5709281961471104,0.2202202202202202,0.6296296296296295,0.7081099464569126,0.4662277412491061,0.5076460226380871
0.4963722792094072,0.5010010010010009,0.7585085085085085,0.5011441128765021,0.4948567242792612,0.4998011755062176
0.4961220915686766,0.5012512512512511,0.7585085085085085,0.5011144636098854,0.4948427716832063,0.4998622181139578
0.3937953465098825,0.5648148148148147,0.7510010010010009,0.5016777996756021,0.4946596438599857,0.3808762230322479
0.5231423567675758,0.8288288288288287,0.5900900900900901,0.8131485777072396,0.5165111533564714,0.749587526379127
0.6392294220665501,0.1203703703703703,0.9474474474474474,1.0,1.0,0.1804576451506008
0.8433825369026773,0.4284284284284283,0.0202702702702703,0.001602804471807,0.0,0.0
0.7935951963972981,0.3563563563563563,0.9396896896896896,1.0,1.0,0.4135340181732563
0.4348261195896924,0.6016016016016015,0.5640640640640641,0.5019533634476865,0.495482847027225,0.0
0.7508131098323745,0.5205205205205204,0.6013513513513513,0.8583497567016063,0.0,0.309440675305649
0.4961220915686766,0.5012512512512511,0.7582582582582582,0.5011912028881874,0.4948881176203847,0.4997715262396009
0.4961220915686766,0.5010010010010009,0.7585085085085085,0.5011598095470639,0.4949334635575632,0.4998779147845196
0.4963722792094072,0.5010010010010009,0.7585085085085085,0.5011284162059403,0.494872420949823,0.4998168721767794
1.0000000000000002,0.0,0.8981481481481481,0.4831068943265256,0.0,0.0
0.5441581185889418,0.8293293293293291,0.572072072072072,0.0,0.2912185848579451,0.6294870676875316
1.0000000000000002,0.1519019019019019,0.7339839839839839,0.8711233583898703,1.0,0.6691176727069781
0.5258944208156119,0.4882382382382381,0.5242742742742742,0.5071576817761655,0.50198475678881,0.0
0.4766074555916939,0.3243243243243242,0.7324824824824825,1.0,0.6323403735807593,0.4631302649249176
0.4961220915686766,0.5012512512512511,0.7585085085085085,0.5012051554842423,0.4949491602281249,0.4997854788356559
0.8966725043782839,0.0,0.0895895895895896,0.3582590648272494,0.0,0.0
0.9809857393044784,0.0,0.0723223223223223,0.0383644069274639,0.0,0.0
0.2259194395796848,0.4329329329329328,0.844094094094094,0.4659835708181453,0.0096604286935138,0.5065472556987635
0.4203152364273206,0.5975975975975975,0.7319819819819819,0.4924150199696531,0.4944608193662033,1.0
0.4961220915686766,0.5012512512512511,0.7585085085085085,0.5011441128765021,0.4948881176203847,0.4998011755062176
0.5334000500375283,0.3708708708708708,0.6031031031031031,0.3997523414200254,1.0,0.2232171198353593
0.5984488366274707,0.5805805805805805,0.622122122122122,0.5097668172384324,0.4945218619739435,1.0
0.7618213660245186,0.5908408408408408,0.6098598598598598,0.732357814325828,0.1363691856916127,0.5486823517100651
0.6139604703527647,0.097097097097097,0.8813813813813813,1.0,1.0,0.7162582625529763
0.6137102827120342,0.5713213213213212,0.6819319319319319,0.5005947294068402,0.4951322880513455,0.906819331321834
0.4943707780835628,0.2670170170170169,0.5032532532532532,0.4406212393393446,0.5344123340949125,0.5839649789839022
0.5729296972729548,0.5700700700700699,0.6073573573573573,0.5010830702687619,0.4967193958525908,0.9299544796553708
0.6412309231923945,0.372122122122122,0.6176176176176176,0.3393515530983483,1.0,0.2850846748173082
1.0000000000000002,0.0,1.0,0.0402270785007935,0.0,0.0
0.9992494370778086,0.2975475475475475,1.0,0.4795350297364703,0.0,0.0
0.5394045534150614,0.7494994994994993,0.6091091091091091,1.0,0.4775206236810436,0.54218044194848
0.4393294971228422,0.3508508508508507,0.5895895895895895,0.7352896035718646,0.0,0.4015836196522315
0.7960970728046036,0.5858358358358358,0.5247747747747747,0.4442524024626332,0.9308230287597884,0.5187086872351186
0.594445834375782,0.5543043043043042,0.6861861861861861,0.4990686642133352,0.49899366900954,0.2167779967560214
0.7830873154866151,0.3178178178178177,0.0005005005005005,0.1736976123620001,0.1278685665451628,0.0
0.4490868151113336,0.4529529529529528,0.57007007007007,0.5065472556987635,0.4895303207353018,0.0
0.5233925444083064,0.2404904904904904,0.5775775775775776,0.6554458726476795,0.4625355355180773,0.4250850236322095
0.3505128846634977,0.2730230230230229,0.5793293293293293,0.6773287754852887,0.0,0.4065891134869281
0.8561421065799352,0.5848348348348348,0.6636636636636637,0.5450337478417078,0.0607827406386801,0.5323682787728692
0.148361270953215,0.5993493493493492,0.8113113113113113,0.4679526309363936,0.9646109841812442,0.5088965240595078
0.4338253690267702,0.4939939939939939,0.73998998998999,0.5016185011423688,0.4944451226956415,0.1233060676352093
0.5881911433575183,0.5743243243243242,0.54004004004004,0.5053717494811378,0.4915464708652353,0.9970246088912916
0.4688516387290469,0.5708208208208208,0.6466466466466466,0.494413729354518,0.4995273558086401,1.0
0.7257943457593197,0.4982482482482481,0.5202702702702703,0.4215898983204562,1.0,0.4902645761026911
0.4943707780835628,0.3846346346346345,0.6001001001001001,0.7583480126270994,0.0,0.3543680346024382
0.4090567925944459,0.6301301301301301,0.5603103103103103,0.4970699548284703,0.4958491026736662,1.0
0.3645233925444084,0.4964964964964964,0.7590090090090089,0.5017091930167257,0.4917906412961961,0.6139979419920819
0.4961220915686766,0.5010010010010009,0.7585085085085085,0.5010830702687619,0.494872420949823,0.4998168721767794
0.5173880410307732,0.4264264264264263,0.6931931931931932,1.0,0.5307340809599386,0.5093098697176344
0.4961220915686766,0.5012512512512511,0.7587587587587588,0.5011912028881874,0.4949177668870014,0.4998325688473412
0.4891168376282213,0.4944944944944944,0.7189689689689689,0.2924865270244345,1.0,0.3467830545720913
0.469352014010508,0.7547547547547546,0.5773273273273273,0.6965118509862741,0.4964438320805064,0.6210928370860003
0.7723292469352017,0.6113613613613612,0.597097097097097,0.5067303835219841,0.6465633011842266,0.3354448262029754
1.0000000000000002,0.6423923923923922,0.0457957957957958,0.5185726494235834,1.0,0.1088075762596578
0.4948711533650239,0.8786286286286284,0.7937937937937938,0.0686275877705495,0.4909343007133265,0.5296667073617385
0.4733550162621968,0.3858858858858858,0.7377377377377377,0.5227078500793554,0.5033276941590945,0.4363482567975304
0.6332249186890169,0.2114614614614614,1.0,0.8553447163262815,0.3328810366778869,0.3713378795542146
0.4961220915686766,0.5012512512512511,0.7587587587587588,0.5011755062176256,0.4949177668870014,0.4997715262396009
0.2126594946209658,0.4219219219219218,0.6804304304304304,0.3274011545773235,1.0,0.5617908157036469
0.4363272454340757,0.586086086086086,0.6939439439439439,0.4546156931824127,0.4938800425554179,1.0
0.4961220915686766,0.5012512512512511,0.7585085085085085,0.5011912028881874,0.4948881176203847,0.4997715262396009
1.0000000000000002,0.7122122122122121,0.0,0.9520205103162008,0.971981443047247,0.4154559882798193
0.3975481611208407,0.5400400400400399,0.7377377377377377,0.5007028620262658,0.4947503357343426,0.4607042572858713
0.5966975231423569,0.5645645645645645,0.5928428428428428,0.5005040375324834,0.4957427141287476,0.8590369220573102
0.4233174881160871,0.4707207207207206,0.6931931931931932,0.5001063885449186,0.4936515687950189,0.1391928423182238
0.4623467600700526,0.5748248248248247,0.6591591591591591,0.5019080175105081,0.4961543157123672,1.0
0.4763572679509633,0.5833333333333333,0.6884384384384383,1.0,0.5323211887611838,0.4861747213840975
0.5394045534150614,0.6624124124124123,0.7367367367367367,0.0,0.7341280499502938,0.3545965083628373
0.6334751063297475,0.5335335335335334,0.7530030030030029,0.5025184435879101,0.4951933306590858,0.5614856026649458
0.9864898674005508,0.0893393393393393,0.6356356356356356,1.0,1.0,1.0
0.8663997998498876,0.0,1.0,0.9848003906726897,0.0033573434257112,0.0
0.1988991743807857,0.4784784784784784,0.7359859859859859,0.3697804210195859,0.1295027643580934,0.5155658649737517
0.487615711783838,0.5422922922922921,0.6103603603603603,0.5051572283167937,0.492340024765858,0.0
1.0000000000000002,0.0,1.0,0.9996633936201756,1.0,0.0
0.4961220915686766,0.5012512512512511,0.7582582582582582,0.5011912028881874,0.4949038142909465,0.4998168721767794
0.4841130848136103,0.6849349349349348,0.7034534534534533,0.0,0.536213963060502,0.3852555941189808
0.9882411808856644,0.0,0.8988988988988988,1.0,1.0,0.9666864328444112
0.4961220915686766,0.5015015015015014,0.7585085085085085,0.5011912028881874,0.4948567242792612,0.4998622181139578
0.5451588691518641,0.4374374374374373,0.6644144144144144,0.5013429373702845,0.500076739278302,0.0
0.4123092319239431,0.3485985985985985,0.6576576576576576,0.7479707693112649,0.0,0.4023632209567993
0.4963722792094072,0.5012512512512511,0.7582582582582582,0.5011441128765021,0.4949491602281249,0.4998622181139578
0.5366524893670254,0.8663663663663663,0.7192192192192192,0.1575806198440797,0.5500252890803495,0.5526640738092331
0.6007005253940457,0.3663663663663663,0.6601601601601601,0.2467342204858991,1.0,0.2965763817430281
0.5146359769827372,0.7194694694694693,0.7169669669669669,0.0,0.7088267610792333,0.4643964630169001
0.5366524893670254,0.7985485485485484,0.6268768768768769,1.0,0.361661754190139,0.3919999302370197
0.4958719039279461,0.5010010010010009,0.7585085085085085,0.5011598095470639,0.4948881176203847,0.4997854788356559
0.7525644233174882,0.4774774774774774,0.6756756756756757,0.2985593944573312,1.0,0.4087116521617803
0.4430823117338004,0.5307807807807807,0.6629129129129129,0.5023196190941277,0.4979245513368331,0.1061827441268291
0.524143107330498,0.603103103103103,0.6041041041041041,0.5039991628442367,0.4852276889268709,0.9994663132009
0.4961220915686766,0.5012512512512511,0.7587587587587588,0.5012505014214207,0.4949177668870014,0.4997715262396009
0.4763572679509633,0.367117117117117,0.6739239239239239,0.4487556028393533,1.0,0.1961612920103947
0.5826870152614463,0.5938438438438437,0.7487487487487487,0.5034183860334513,0.4956659748504456,0.954966252158292
0.542406805103828,0.3988988988988988,0.6859359359359358,0.6941922318921464,0.0,0.4796728116225125
0.1401050788091069,0.5157657657657657,0.8283283283283283,0.3709716239077734,0.102201022027661,0.4392015626907581
0.3385038779084314,0.6238738738738737,0.5538038038038038,0.491576120131852,0.4978338594624762,0.982145909273244
0.5611708781586191,0.5588088088088087,0.6964464464464464,0.5007325112928824,0.496780438460331,0.4495334600694142
0.474355766825119,0.6744244244244243,0.6679179179179179,1.0,0.6432059577585154,0.729214992064461
0.0,0.1831831831831831,0.2339839839839839,1.0,1.0,0.0
0.4961220915686766,0.5012512512512511,0.7585085085085085,0.5011912028881874,0.4949491602281249,0.4998011755062176
1.0000000000000002,0.7552552552552552,0.0928428428428428,0.3601967316043741,1.0,0.2926225648359698
0.4961220915686766,0.5012512512512511,0.7585085085085085,0.501220852154804,0.4948881176203847,0.4997854788356559
0.1743807855891919,0.4699699699699698,0.7845345345345345,0.3634633831557284,0.1799989535552958,0.4912255611559726
0.6067050287715788,0.4549549549549548,0.6776776776776776,0.7337321450372359,0.0,0.5683066780612868
0.4098073555166376,0.5440440440440439,0.7657657657657657,0.5025934387917051,0.4948881176203847,0.351711809128486
0.6860145108831626,0.4852352352352351,0.6276276276276276,0.7007691368575265,0.0,0.5739069013028236
0.5354015511633726,0.7262262262262261,0.1536536536536537,0.0,0.4298463470359454,0.7643144915150775
0.5739304478358771,0.574074074074074,0.7147147147147146,0.5010220276610217,0.4944747719622582,0.4168756649284058
0.6012009006755068,0.2322322322322322,0.6589089089089089,0.8977379353645987,0.5812180616355931,0.4715541447930655
0.4015511633725295,0.5252752752752752,0.6559059059059058,0.5007778572300609,0.495177633988524,0.9776130596299072
0.4961220915686766,0.5012512512512511,0.7585085085085085,0.5011598095470639,0.494872420949823,0.4997854788356559
0.7112834625969479,0.4989989989989989,0.0,0.1238868444459947,0.5635000087203725,0.0
0.8576432324243184,0.0963463463463463,0.8666166166166165,1.0,0.9838080122782844,0.4201405724052531
0.498123592694521,0.3816316316316315,0.6123623623623623,0.8101121439907912,0.0,0.4811221375377156
0.6617463097322994,0.4659659659659659,0.71996996996997,0.5009470324572266,0.4963374435355878,0.0403177703751505
0.5326494871153367,0.5025025025025024,0.7239739739739739,0.5113992709768561,0.4186459005528716,0.4985803233514135
0.5023767825869403,0.9244244244244244,0.7545045045045045,0.0,0.3895896192685352,0.5710832446762125
0.101826369777333,0.5442942942942942,0.7244744744744744,0.2843207701833022,0.0239287022341594,0.4401782444146014
0.8436327245434077,0.6006006006006005,0.6226226226226226,0.5903884053926783,0.4133648429460906,0.709543575701554
0.4010507880910684,0.4539539539539539,0.7497497497497497,0.4981076791600537,0.4891954584299841,0.9324415299021572
0.1556167125344009,0.624124124124124,0.772022022022022,0.440743324554825,0.5494288155990024,0.4829080698327432
0.4963722792094072,0.5012512512512511,0.7585085085085085,0.5012661980919825,0.494872420949823,0.4998168721767794
0.4108081060795598,0.5135135135135134,0.5307807807807807,0.5011598095470639,0.4918970298411148,0.0413101487695554
0.2469352014010509,0.3698698698698698,0.6601601601601601,0.3606240298585556,0.0,0.4341960688560615
0.5539154365774333,0.5718218218218217,0.622122122122122,0.4986117166925371,0.4957270174581858,0.9590561068768856
0.5381536152114087,0.6023523523523522,0.5805805805805806,0.5011755062176256,0.4972077367145124,1.0
0.5576682511883915,0.2597597597597597,0.5838338338338338,0.9161431536355232,0.4326386103214329,0.4313427629628338
0.5006254691018265,0.5197697697697696,0.7595095095095095,0.494171302998064,0.4878682177302614,0.5022428798158257
0.7012759569677259,0.0955955955955955,0.266016016016016,0.0018155815616443,0.0,0.0
0.2419314485864399,0.4957457457457456,0.8028028028028027,0.3665155135427385,0.023883356296981,0.4613600293004517
0.5078809106830124,0.2917917917917917,0.7602602602602602,0.5778293248687584,0.4485114324083925,0.542257181226782
0.8141105829372031,0.0145145145145144,0.8123123123123123,1.0,1.0,1.0
0.4473355016262198,0.3678678678678678,0.7147147147147146,0.7556778345570923,0.0,0.4014929277778746
0.6324743557668253,0.2660160160160159,0.1341341341341341,0.2647731831103824,0.0,0.0
0.5691768826619966,0.5400400400400399,0.7467467467467467,0.501602804471807,0.4950712454436053,0.476880548337025
0.7140355266449839,0.0725725725725725,0.913163163163163,0.6993494602089401,1.0,0.5025184435879101
0.3695271453590193,0.4987487487487486,0.7497497497497497,0.5028236566266111,0.4922318921464325,0.5946003453267523
0.8536402301726297,0.0377877877877877,0.8048048048048048,1.0,1.0,1.0
0.4961220915686766,0.4994994994994994,0.7577577577577577,0.5012051554842423,0.4948113783420828,0.4996651376946823
0.5063797848386291,0.8025525525525524,0.6921921921921921,0.0,0.593013237525507,0.5266756195824686
0.4963722792094072,0.5010010010010009,0.7585085085085085,0.5011912028881874,0.4949631128241799,0.4998168721767794
0.8573930447835878,0.2007007007007006,1.0,0.0076756719047038,0.0,0.003142822261367
0.5776832624468353,0.128128128128128,0.8285785785785785,1.0,1.0,0.4801768491549959
0.5756817613209909,0.5963463463463462,0.664914914914915,0.5010987669393236,0.4943683834173396,0.7698850654899978
0.4220665499124344,0.5385385385385384,0.7702702702702702,0.5012818947625443,0.495100894710222,0.492263285487556
0.4620965724293221,0.2525025025025024,0.6776776776776776,0.5915482149397422,0.5124369953084396,0.5088511781223294
0.336502376782587,0.3475975975975975,0.632132132132132,0.5361058304410764,0.0,0.421377121230619
0.8008506379784841,0.2354854854854854,1.0,1.0,1.0,0.0
0.4958719039279461,0.5012512512512511,0.7582582582582582,0.5011598095470639,0.4949177668870014,0.4998168721767794
0.5311483612709533,0.5417917917917917,0.5875875875875876,0.5028690025637895,0.4950712454436053,0.0856113853183808
0.4943707780835628,0.3123123123123122,0.4489489489489489,0.2254146537140067,0.5039677695031132,0.661229223712437
0.6207155366524895,0.3988988988988988,0.6106106106106106,0.4315415874566161,1.0,0.3894361407119312
0.7670753064798601,0.4877377377377376,0.6834334334334333,0.8013673544133806,0.0,0.4577288661771631
0.4961220915686766,0.5012512512512511,0.7585085085085085,0.5011441128765021,0.4948567242792612,0.4998482655179029
0.2747060295221417,0.4154154154154153,0.6076076076076076,0.126694804402044,1.0,0.6748713745051189
0.4961220915686766,0.5010010010010009,0.7585085085085085,0.5011912028881874,0.4948881176203847,0.4998011755062176
0.4961220915686766,0.5010010010010009,0.7585085085085085,0.5011755062176256,0.4948427716832063,0.4997715262396009
0.4963722792094072,0.5010010010010009,0.7582582582582582,0.5011144636098854,0.4948567242792612,0.4998482655179029
0.8729046785088819,0.0297797797797798,1.0,1.0,0.0008999424455413,1.5696670561837767e-05
0.4696022016512385,0.2817817817817817,0.7134634634634633,0.9998622181139578,0.4463435477963619,0.5899611071384969
0.4205654240680511,0.1909409409409408,0.6611611611611611,0.6823499659905471,0.5568463644766904,0.3369394980553569
0.1951463597698274,0.6273773773773773,0.7409909909909909,0.4962920975984094,0.8802187069431606,0.5234403613722378
0.4961220915686766,0.5012512512512511,0.7585085085085085,0.5011598095470639,0.4948567242792612,0.4998482655179029
0.8901676257192896,0.0150150150150149,0.7067067067067067,1.0,1.0,1.0
0.4958719039279461,0.5010010010010009,0.7582582582582582,0.501220852154804,0.4949177668870014,0.4997715262396009
1.0000000000000002,0.2237237237237236,0.575075075075075,0.7751957723633953,1.0,0.7156949264872595
1.0000000000000002,0.4917417417417417,1.0,1.0,0.0,0.8511467289882624
0.6487365524143109,0.0,0.3516016016016016,0.0638662643668137,0.0,0.0
0.5729296972729548,0.5700700700700699,0.7454954954954954,0.5015871078012453,0.4950712454436053,0.5766241693845161
0.4961220915686766,0.5012512512512511,0.7585085085085085,0.5011755062176256,0.4949038142909465,0.4998168721767794
0.5253940455341507,0.4604604604604603,0.6096096096096095,0.5028690025637895,0.4944608193662033,0.0058757870136212
0.4961220915686766,0.5010010010010009,0.7582582582582582,0.501220852154804,0.494872420949823,0.4997261803024225
0.4540905679259446,0.5055055055055054,0.542042042042042,1.0,0.5388998378010709,0.6236723232816506
0.5046284713535153,0.4079079079079078,0.6446446446446445,1.0,0.5641261314683363,0.6307375691089523
0.1698774080560421,0.4647147147147146,0.6656656656656657,0.375213213108464,0.2477265988803041,0.4527373249385213
0.5464098073555168,0.5673173173173173,0.7587587587587588,0.5009766817238432,0.4946125538483004,0.5749603223049689
0.510883162371779,0.4792292292292291,0.627127127127127,0.3115457732354326,1.0,0.3204440413694473
0.4961220915686766,0.5010010010010009,0.7585085085085085,0.5011144636098854,0.494872420949823,0.4997715262396009
0.5724293219914938,0.611111111111111,0.5795795795795795,0.5027015714111307,0.4949177668870014,1.0
0.4961220915686766,0.5012512512512511,0.7582582582582582,0.5011598095470639,0.4948881176203847,0.4998325688473412
0.4508381285964474,0.4789789789789789,0.7487487487487487,0.3291574376057345,1.0,0.2815128102272529
0.7818363772829624,0.4444444444444443,0.0,0.4649615431571237,0.5402113818302318,0.0
1.0000000000000002,0.3273273273273273,1.0,0.6615501334216998,0.0,0.1722918883094686
0.505879409557168,0.2434934934934934,0.6554054054054054,0.5806215881542459,0.5727470917557598,0.5289952386765963
0.464348261195897,0.7357357357357356,0.6068568568568569,1.0,0.3032910685944503,0.6806250763032596
0.7665749311983989,0.0315315315315314,1.0,1.0,1.0,0.888140293353332
1.0000000000000002,0.5533033033033032,0.5112612612612613,0.2872351186842702,1.0,0.4360587404293911
0.5226419814861147,0.2507507507507507,0.2802802802802803,1.5696670561837767e-05,0.5616844271587282,0.4476411392294679
0.8841631223417565,0.046046046046046,0.5698198198198198,0.2289708216335002,0.0,0.0007639046340059
0.7883412559419567,0.1316316316316315,0.5,0.0,0.0,0.0
0.430072554415812,0.5192692692692692,0.6178678678678678,0.4988558871234979,0.4999546540628216,0.0004116015836196
0.9849887415561672,0.0,1.0,1.0,1.0,0.9188900709838324
0.5293970477858395,0.5718218218218217,0.6824324324324323,0.5013272406997227,0.4966723058409055,0.2219509217433768
0.4961220915686766,0.5012512512512511,0.7582582582582582,0.5011598095470639,0.4948881176203847,0.4997715262396009
0.9932449337002754,0.0,0.0212712712712713,0.0,0.0,0.0
0.1918939204403303,0.5718218218218217,0.80005005005005,0.3481713378795542,0.7883199330275389,0.5667038735894797
1.0000000000000002,0.9907407407407406,0.0,0.7697769328705721,1.0,0.1080297190295969
0.6900175131348513,0.4639639639639639,0.6048548548548548,0.40713849695659,1.0,0.369384516106528
0.4963722792094072,0.5010010010010009,0.7585085085085085,0.5015260651935051,0.4947346390637808,0.4998011755062176
0.6139604703527647,0.569069069069069,0.7697697697697696,0.5010377243315834,0.4949945061653034,0.5502084169035701
0.5864398298724044,0.8731231231231229,0.5818318318318318,1.0,0.3967159077035771,0.6412979402480075
0.5496622466850138,0.4609609609609609,0.6141141141141141,0.3501857439349809,1.0,0.3371383225491393
0.4963722792094072,0.5015015015015014,0.7587587587587588,0.5012051554842423,0.494872420949823,0.4998011755062176
1.0000000000000002,0.2682682682682682,0.5415415415415415,0.8126305875787013,1.0,0.0
0.4620965724293221,0.7004504504504503,0.5645645645645645,1.0,0.5141304916546034,0.6350576416624518
0.4210657993495122,0.5492992992992992,0.5740740740740741,0.4987948445157577,0.4965205713588084,0.0
0.352014010507881,0.4346846846846846,0.6446446446446445,0.3695362505886251,1.0,0.4572405253152414
0.8491368526394798,0.5975975975975975,0.596096096096096,0.646380173361006,0.0453843068175872,0.5700769136857526
0.1778834125594196,0.4532032032032031,0.8313313313313313,0.3039468406090308,0.3205347332438041,0.4942323456058042
0.5979484613460097,0.2354854854854854,0.6741741741741741,0.9973455186005546,0.5170622809006401,0.504899105289778
0.4323242431823869,0.5773273273273272,0.7074574574574574,0.4782234857073094,0.4936358721244571,0.948480039067269
1.0000000000000002,0.6078578578578577,0.4481981981981981,0.4385300940056159,1.0,0.1942829237665033
0.4863647735801852,0.3478478478478478,0.6634134134134133,0.7820935870380383,0.0,0.3663323857195179
0.4886164623467602,0.8298298298298297,0.6381381381381381,1.0,0.4069100231961909,0.647524286237508
0.4961220915686766,0.5012512512512511,0.7582582582582582,0.5011284162059403,0.4948881176203847,0.4997854788356559
0.5821866399799851,0.5495495495495495,0.7409909909909909,0.5013429373702845,0.4945672079111219,0.5316043741388632
1.0000000000000002,0.0,0.1398898898898899,0.0,0.0,0.0
0.4961220915686766,0.5010010010010009,0.7585085085085085,0.5012051554842423,0.4949177668870014,0.4997558295690392
0.4961220915686766,0.5010010010010009,0.7585085085085085,0.5011598095470639,0.494872420949823,0.4997854788356559
0.4963722792094072,0.5010010010010009,0.7582582582582582,0.5011755062176256,0.4949038142909465,0.4997854788356559
0.4961220915686766,0.5010010010010009,0.7585085085085085,0.5011755062176256,0.4948567242792612,0.4997854788356559
0.4478358769076809,0.1889389389389388,0.2805305305305305,0.0203428850480492,0.6737586549697403,0.815269372307585
0.5541656242181637,0.4699699699699698,0.5985985985985985,0.5046078448471318,0.484221357936411,2.9649266616693648e-05
0.5461596197147862,0.2289789789789789,0.7902902902902902,0.9732633378097912,0.5327955770270506,0.5883896960078134
0.620465349011759,0.4969969969969969,0.6336336336336336,0.5016185011423688,0.4927812756160943,0.0544500061042607
0.411808856642482,0.6216216216216215,0.6604104104104104,0.4928737115649581,0.4972530826516909,0.9836719744667493
0.4963722792094072,0.5015015015015014,0.7585085085085085,0.5009470324572266,0.4950258995064269,0.4997854788356559
0.6117087815861898,0.4947447447447446,0.6233733733733733,0.5085913110208068,0.4935451802501003,0.0
0.9544658493870404,0.0823323323323323,0.1526526526526526,0.3576329420792856,0.0,0.0
0.4961220915686766,0.5012512512512511,0.7587587587587588,0.5011144636098854,0.494872420949823,0.4997854788356559
0.7950963222416814,0.6584084084084083,0.4887387387387387,0.5338176046880723,0.6452517571550657,0.4890576765439419
0.4961220915686766,0.5010010010010009,0.7585085085085085,0.5011755062176256,0.4948881176203847,0.4998168721767794
0.8759069301976484,0.6784284284284283,0.5122622622622622,0.6121649196853689,0.2195406107748923,0.5930446308666306
0.4961220915686766,0.5012512512512511,0.7587587587587588,0.5012051554842423,0.494872420949823,0.4998168721767794
0.2096572429321992,0.5255255255255254,0.7580080080080079,0.4933306590857561,0.9019359227026178,0.5429739958491027
0.4963722792094072,0.5012512512512511,0.7585085085085085,0.5011598095470639,0.4948881176203847,0.4997854788356559
0.2807105328996748,0.4664664664664664,0.7229729729729729,0.3409840068367721,0.0,0.5506496677538064
0.5143857893420066,0.4034034034034033,0.7364864864864864,0.1772677328775485,1.0,4.5345937178475904e-05
0.5148861646234677,0.0,0.8706206206206206,0.9779479219352252,1.0,0.7928056926591904
0.5734300725544159,0.3858858858858858,0.6206206206206206,0.3267767759038666,1.0,0.298116399532588
0.1718789091818864,0.512012012012012,0.8355855855855856,0.3201231316601846,0.2443378621134695,0.54768997331566
0.8408806604953718,0.7249749749749749,0.5435435435435435,0.5282330781170972,0.463480823900797,0.5815843172820343
0.4723542656992746,0.1976976976976976,0.0638138138138138,0.0,0.776294539302719,0.3567329996337444
0.7780835626720042,0.3828828828828828,0.6964464464464464,1.0,0.531543331531123,0.3427995883984164
0.4568426319739806,0.7152152152152151,0.7867867867867867,0.0,0.4171337879554214,0.3507054781380261
0.5409056792594448,0.2437437437437437,0.6724224224224223,0.6221305614175837,0.4655266232973473,0.5370842562394266
0.5111333500125095,0.567067067067067,0.6844344344344344,0.4601391771456476,0.4904163105847882,1.0
